accx,accy,accz,gyrx,gyry,gyrz
6.451914,9.084186,-1.5665643999999999,1.105701,0.90561646,2.0222081999999997
6.1384845,9.297661999999999,-1.2297768999999998,1.4219023000000002,0.9151983,2.1930935000000003
6.1395664000000005,9.635914999999999,-1.6348472,1.6822006999999999,1.269727,2.355444
5.902454,9.315044,-2.0424263,1.9020598000000002,1.8009878000000001,2.5162063
5.913132,10.000906,-2.2273355,2.0803976000000004,2.2343006,2.8579592999999996
6.654683599999999,11.619588,-2.2887325,2.1778044999999997,2.367382,3.079424
6.627983599999999,9.511167,-1.7125342000000001,2.1522702999999996,2.4626770000000002,3.2689319
6.049535,9.6186285,-1.801292,2.066016,2.5680776,3.3993428
6.331907,12.63515,-2.5282962,1.9238939,2.5494547,3.408401
7.181236,14.941695000000001,-3.3630586000000005,1.7476854,2.4057095,3.2997892
7.0971227,15.006177,-3.4709222,1.5246323,2.1363528,3.0559842999999995
5.933607599999999,13.531578,-2.3771167,1.2419763000000001,1.7573371,2.6807036
5.0644355,11.982845,-1.421993,0.8991587,1.2713326999999999,2.1595482999999995
5.393399,10.974829,-1.0092325999999998,0.5217487,0.77679366,1.5468503999999998
4.650631400000001,9.658583,-0.46305776,0.16615534,0.35732126,0.8926312
3.9398985,7.953355999999999,-0.46425486,-0.14470525,0.047525316,0.2628815
3.7782992999999996,7.529898599999999,-1.2749795,-0.40235075,-0.18882717,-0.31201252
3.6054763999999997,7.1981387,-1.3649632,-0.52637386,-0.38098790000000005,-0.7815234999999999
3.422224,6.9414229999999995,-1.2896702,-0.5274559,-0.48425904,-1.1589508999999998
3.4148116,6.9003763,-1.3776045,-0.5540548000000001,-0.50235814,-1.4953632
3.2523793999999997,6.9189940000000005,-1.5473151000000003,-0.67491883,-0.45553094,-1.7881596000000002
3.1943152,7.1685076,-1.8627464,-0.81649995,-0.43476152,-2.0181240000000003
3.3246555,7.7511516,-2.3300946,-0.9272235999999999,-0.533774,-2.2049618
3.6562523999999996,8.553775,-2.9385474,-0.99003804,-0.7179585999999999,-2.368918
3.8050952000000007,8.820219999999999,-3.1248739,-1.0640399999999999,-0.9532465,-2.4397259
4.022058,8.782812,-3.1238875,-1.1194018000000001,-1.2550663,-2.4184330000000003
4.1664376,9.1185665,-3.0274012000000003,-1.1114082,-1.5467806,-2.3401723
4.1642447,9.31875,-2.8240950000000002,-1.078945,-1.6612393,-2.188992
3.9489867999999997,8.50816,-1.9057078,-1.0193246999999999,-1.686791,-2.027165
4.0391617,8.207314,-1.1150467,-0.98097974,-1.6724093999999998,-1.8664026999999999
4.633642,9.237242,-1.1142423000000001,-0.9660921,-1.6010778,-1.6944529
4.954159,10.147958000000001,-1.4717731,-0.9708743000000001,-1.5121882,-1.511874
4.918514,10.834069,-1.6766211,-1.1939274,-1.8523353,-1.1413754999999999
5.151843,12.206760000000001,-1.4550234,-1.2631122,-1.9497421999999998,-1.1078303
5.5352025000000005,14.07758,-1.2469959,-1.2785583999999999,-2.0519662,-1.4730055
5.3932743,14.522681,-1.332268,-1.3876764,-1.7900445,-1.620992
4.981385700000001,12.995784,-1.1133899999999999,-1.5239691999999998,-1.4589556000000001,-1.8179523999999998
4.686133,10.794363,-0.6787274999999999,-1.6096648,-1.1656356,-1.9276115000000003
4.387824500000001,8.656476,-0.4647433,-1.5244927,-0.96815157,-1.9531630000000002
4.1953883,6.883530599999999,-0.25888026,-1.3120862,-0.8638158000000001,-1.8749199
4.142437999999999,5.686075700000001,-0.3287718,-1.0273008,-0.8318763000000001,-1.7216102
4.024902,5.0599245999999996,-0.46244484,-0.7377158,-0.82281804,-1.480458
3.7452786,4.7852144,-0.8656091999999999,-0.453454,-0.74509853,-1.1413754999999999
2.75428,4.8556610000000004,-1.8079001000000001,-0.15482816,-0.5981767,-0.703263
5.98515,5.6535335,-0.48853207,0.14486232,-0.49544662,-0.20661208
5.1707573,6.105789,-2.2868266,0.35566318,-0.60562927,0.23839453
6.513991000000001,7.812864299999999,-1.9291998,0.50577897,-0.77862626,0.5588544
7.1435127000000005,8.763515,-2.9090126,0.707539,-0.5199161,0.862821
7.376181,9.391869999999999,-2.72803,0.86297804,0.16409585,1.1539941999999999
7.221889,9.489161,-2.2754781000000004,0.91034627,0.89231706,1.3296616
7.081119500000001,9.647206,-2.021051,0.90715235,1.3357528,1.3946053
7.074281699999999,10.036216,-1.9865743999999999,1.0338458000000001,1.4278364,1.508523
7.0763407,10.257488,-2.0531811999999996,1.3484413999999998,1.3623517,1.7901144
6.938923399999999,9.7761965,-2.0563893,1.6795478,1.3910972,2.2117336
6.3783445,9.181017,-2.019576,1.9270878,1.6311847,2.5683916
6.0127788,9.545414,-2.1628165,2.107555,1.8366623,2.9372845
6.342279,10.772069,-2.605744,2.2730994,2.0235174,3.234322
6.550296299999999,8.668513,-2.0186758,2.3545540000000003,2.2348418,3.4621572
6.45132,8.033457,-1.5905831,2.360418,2.4898342999999996,3.6096199999999996
6.9326696,10.971525,-2.3849313,2.252871,2.6037345000000003,3.6160080000000003
7.880667999999999,14.214623999999999,-3.3069959000000004,2.0591044,2.5670127999999997,3.4728038
8.158597,15.683523999999998,-3.7220356,1.8089116000000003,2.4014683,3.1810894
6.5992913,14.093794,-3.0657465,1.5108093,2.0900493000000004,2.7419298
4.999371,12.130625,-1.8963896,1.1504338,1.6652535,2.1595657000000004
4.165528,10.434965,-1.2745101,0.7426725000000001,1.2149062,1.4851181999999998
4.402755,9.102582,-0.9940438,0.33065262,0.7741408000000001,0.8037416000000001
3.6810946,7.5624213000000005,-0.86544645,-0.050474923,0.40896556,0.15856317
3.7276952000000003,6.864435,-0.95650274,-0.38903388,0.09063495,-0.37695622
3.7003345000000003,6.6578726999999995,-0.9059371999999999,-0.59505254,-0.23513076,-0.84912014
3.7889487999999996,6.8429155,-1.0863643,-0.62912136,-0.46987754,-1.2111014
3.9333480000000005,7.1226444,-1.4880155000000002,-0.58653533,-0.5726251,-1.4911046000000001
3.8694322,7.457267999999999,-1.8850125,-0.6227159999999999,-0.5736897,-1.7200046000000002
3.8024712,7.7776027,-2.1924278999999998,-0.6855479,-0.54546773,-1.8781139
3.8447910000000003,8.238773,-2.6357958,-0.7227932,-0.624793,-1.9856261999999998
4.096508,8.709474,-3.0787232,-0.7227932,-0.81908303,-2.1267009999999997
4.132239,8.767337,-3.3728267999999995,-0.7499505,-1.0330778,-2.2762759
4.0415177,8.581854,-3.3988089999999995,-0.85109234,-1.2651892,-2.399793
4.0853987,9.230817,-3.5293405,-0.98949695,-1.4914187,-2.4631307000000002
3.9734074999999995,9.592226,-3.4361007000000003,-1.0730634,-1.5781791,-2.4178919999999997
3.762057,9.184206,-2.6914465,-1.0730634,-1.5552979,-2.3209912999999998
3.6891007000000005,8.660574,-1.6830183999999997,-1.0304947,-1.542522,-2.1884507999999996
4.105654,9.509061,-1.3135643999999997,-0.9799151,-1.5318755,-2.0207596000000003
4.530433,10.658938000000001,-1.5383896000000001,-0.9484992,-1.4988713,-1.8046355
4.417532,10.834892,-1.6163926000000002,-1.2253083999999999,-2.0040393,-1.2866917
4.4763722,11.755875,-1.5321933,-1.2061447,-2.0418432,-1.3122432
5.1137943,13.081239,-1.0127378,-1.2311727,-2.1296682000000002,-1.6231213
5.600172,13.934282000000001,-0.96961343,-1.2737588,-1.7682278999999999,-1.7615258999999999
5.612679,13.122226999999999,-1.3144646,-1.409493,-1.3434323000000001,-1.9339993000000002
5.4137883,11.332168,-1.1179103000000001,-1.5276691999999998,-0.9479058000000001,-2.0819857
5.0596185,9.289569,-0.6085199,-1.5031823,-0.6412863,-2.132548
4.671135400000001,7.1857940000000005,-0.07513005,-1.3493488999999999,-0.5651725000000001,-2.0633456999999997
4.3185267,5.5671415,0.021930886,-1.0666753999999998,-0.6109525,-1.8780965
4.1339817000000005,4.758907,0.06264189,-0.72651076,-0.5843362,-1.5251734
3.70519,4.6063004,-0.6096212,-0.3831696,-0.45284313,-1.0295697
2.3978312,5.0046096,-1.8071721,-0.022794,-0.35863024,-0.42538909999999996
6.8184466,5.731662,-0.11791922,0.35248670000000004,-0.43847907,0.1473756
4.950922,6.117740599999999,-2.0271513,0.5925741999999999,-0.67109656,0.53332025
6.563733,7.8318259999999995,-1.7859596000000002,0.7176619000000001,-0.78394955,0.77340776
6.866781,8.563341000000001,-2.7833072999999997,0.87735957,-0.40866885,1.046482
7.317226,9.233067,-2.6522965,1.0024472,0.29611257,1.3775883999999998
7.0653179999999995,9.603632000000001,-2.3293955000000004,1.0099173000000001,0.945567,1.6080940000000001
6.7567725,9.512383,-2.082017,0.9635963,1.2633566,1.7102830000000002
6.5695553,9.31807,-1.7142292000000001,1.0418394,1.2633566,1.8226124
6.4927306,9.875632000000001,-1.6896456000000002,1.3016317,1.1579561,2.0557708999999997
6.258836,10.204461,-1.9681966,1.5970635,1.2127769,2.3639786
5.5102267,9.520475,-2.0703716,1.8030822,1.5752993,2.5699973
5.2803736,9.913748,-2.224606,2.0160124,1.8750072,2.8702287999999996
6.383373000000001,11.841693,-2.5660000000000003,2.2411773,2.0767498,3.196012
6.9990562999999995,9.879061,-2.034334,2.3135736000000002,2.2199366,3.4036187999999994
6.348829299999999,8.573311,-1.6753186999999998,2.3045153999999997,2.5041982999999997,3.5782216
6.5595284,11.024283,-2.144429,2.1953974,2.6798658,3.6234605
7.487674,14.096570999999999,-2.9396966,1.9829907,2.670825,3.5335064
7.582973,15.063063,-3.4399028,1.6843648999999998,2.4919636,3.2822487000000002
6.318528,14.008301999999999,-2.8285291,1.3128017,2.1608572,2.854259
5.121782,12.431528,-1.5184218999999999,0.8842711,1.6743118000000001,2.2873237
4.9158325,11.017225,-0.8890629000000001,0.44458770000000003,1.097812,1.6336281000000001
5.157369,9.8996315,-0.60762924,0.07459537,0.50638986,0.99536127
3.7860660000000004,8.020499000000001,-0.53854215,-0.18514453,0.05071927,0.4092797
3.9125468999999997,7.130660499999999,-0.7761140000000001,-0.38796923,-0.2601413,-0.12835151
3.7593083,6.8065815,-0.9067033000000001,-0.4837878,-0.44273767,-0.5770930999999999
3.7425203000000002,6.6180143,-0.99443644,-0.4837878,-0.47680649999999997,-0.964626
3.832188,6.716741000000001,-1.2463256999999999,-0.555643,-0.52790976,-1.4346781000000002
3.7440907999999995,7.1567473,-1.7998651,-0.6775368,-0.58485985,-1.8690556
3.7658782,7.723225599999999,-2.3407345,-0.72598714,-0.5917713000000001,-2.1426534999999998
3.9386437000000005,8.288841,-2.8748999,-0.64240336,-0.571543,-2.2778642000000002
4.0290294,8.777411,-3.4002357000000005,-0.58971184,-0.47626543,-2.3183384
3.8512843,8.683281,-3.7009665999999997,-0.6530673,-0.437938,-2.254983
3.578939,7.981789599999999,-3.3540563999999997,-0.77654934,-0.66736156,-2.2081382
3.567782,7.9095516,-2.919614,-0.86278605,-1.0655409,-2.206009
3.7935553,8.228287,-2.7499703999999996,-0.91017175,-1.492466,-2.1852396
3.786765,8.011956,-2.1246529,-0.9516931000000001,-1.8507296999999998,-2.1804574
4.0565343,8.273135,-1.6840144000000001,-1.0395181,-2.09347,-2.2065325000000002
5.196011,10.7605,-2.0820935,-1.1534357,-2.171713,-2.1841748
5.5038290000000005,11.8329115,-2.0811167,-1.2396724,-2.0945346000000002,-2.0979555
4.991096499999999,10.724442999999999,-1.398932,-1.5713198999999998,-2.3968956,-1.7093580000000002
5.0693197,11.487715,-0.42264363,-1.8688811,-2.730655,-1.4053915000000001
5.357026599999999,13.978288000000001,-0.48264232,-1.6852375,-2.4974964,-1.9079066999999998
5.0247207000000005,14.373313000000001,-1.2165896,-1.786903,-2.0716533999999998,-2.0154363999999996
4.964607,12.63583,-1.2721447,-1.6682031000000002,-1.2066159,-2.0702572
4.6905956,10.566848,-0.90810156,-1.6421105,-0.4794594,-2.0500288
4.246021,8.760288000000001,-0.49724695,-1.5532033,-0.13610077,-2.0308652
4.5165752999999995,7.4364576,-0.34526303,-1.3663659,-0.1749518,-1.9265293000000001
4.7345815,6.5174384000000005,-0.51979077,-1.0507057,-0.40971604,-1.7157285
4.8607755,5.7655535,-0.49933472,-0.6647784999999999,-0.5486616999999999,-1.3585469
4.652384,5.2632885,-0.6196577,-0.29691540000000005,-0.47040114,-0.8895594000000001
3.1616392,5.4220432999999995,-2.2426294999999996,0.06504842,-0.2894105,-0.34925783
6.3708653,6.1197042,-1.1722777,0.3689975,-0.16538739,0.12716469
7.98111,6.038033,-0.753235,0.5334948,-0.16325809,0.48541096
5.938147,6.622294999999999,-1.8638381000000002,0.7549246999999999,0.047525316,0.80639446
7.3936972999999995,8.126686,-1.4159403999999998,0.9854129,0.5415233,1.1582704
7.118555000000001,8.9484625,-2.3517094,1.0525033000000001,1.0195515,1.4148512
7.002244999999999,9.672249,-2.599672,0.9710663,1.3277767,1.5138637
6.621471400000001,9.709925,-2.5102439999999997,0.91409874,1.3559812,1.5261159
6.362208,9.512585000000001,-1.936957,1.1376754,1.3011605,1.6570679
6.3522,9.610259,-1.5552638,1.4959391000000002,1.4321125,1.9519761999999998
6.33071,9.499216,-1.8472703000000001,1.7615608,1.8228393,2.2623131
5.8813276,9.474584,-2.1875916,1.9153942,2.4839876,2.5034654
6.4682617,11.941838,-2.7806451,2.0112126,2.9045246,2.8963215
7.092612,11.6976,-2.5138542999999998,2.1166306,2.886949,3.177913
6.1328816,8.295822,-1.4545925,2.0362408,2.6782775,3.3503864
5.8561214999999995,9.759532,-1.9158115000000002,1.8658966000000001,2.603752,3.4483342000000006
6.691076,13.352808,-2.8796117000000003,1.6891645,2.5191209999999997,3.421718
7.716186500000001,15.978223000000002,-4.1290307,1.4714346999999999,2.3423889,3.299283
7.0934258,15.098610999999998,-3.7900405,1.2063366000000002,2.0879374,3.0538722999999997
5.4364276,12.596221,-1.868253,0.8784417,1.7083806000000001,2.6668806000000003
4.4106654999999995,10.63195,-0.92087704,0.51272535,1.2000184999999999,2.1510658
4.6490035,9.4947815,-0.917324,0.14702654,0.62617177,1.5745662
4.641179,8.44365,-0.106723934,-0.15692255,0.140691,1.001243
3.4098699999999997,6.955242,-0.339833,-0.38954005,-0.21807889999999996,0.48329914
3.4478705,7.0320196,-1.4746176000000002,-0.50506335,-0.5401444999999999,0.013788101
3.3926988,7.250964,-1.7283455,-0.46513024,-0.7525335999999999,-0.41578978
3.4462333,7.226419,-1.7216896000000002,-0.36665878,-0.7653094,-0.8336565
3.5827025999999997,7.294442699999999,-1.5720903999999998,-0.40392154,-0.6269048,-1.2637928999999999
3.2948236000000004,7.403542,-1.7933528000000003,-0.5391148,-0.4954117,-1.6310799999999999
3.2611136000000003,7.885274400000001,-2.2261286,-0.65303236,-0.4672072,-1.8759496999999998
3.3136902000000004,8.399118,-2.807077,-0.67486644,-0.5007524,-2.0415115000000004
3.534474,8.827029,-3.1560366,-0.70415306,-0.58805376,-2.1442592
3.5253087999999995,9.017358999999999,-3.3196087,-0.8074241999999999,-0.7914021,-2.1820455
3.552545,9.299597,-3.145914,-0.9154950000000001,-1.136349,-2.2235669999999996
3.4288032,9.420293,-3.0265296000000004,-1.0033026,-1.5680561000000002,-2.2384720000000002
3.3077332999999998,8.975268,-2.45851,-1.0230247,-1.9007683000000002,-2.1953622999999998
3.3766768,8.134032000000001,-1.4362816,-1.0134254999999999,-2.0556662,-2.1522353
4.1050024,8.876483,-1.0278308,-1.0336537000000001,-2.0184035,-2.086768
5.01546,10.890792999999999,-1.5884475,-1.0602701,-1.8422124,-1.9994667000000002
5.0871615,11.251972,-1.9499335999999998,-1.0970093,-1.7123251,-1.8685145
4.781172799999999,11.142576,-1.6312653999999998,-1.4568613000000001,-2.1988529999999997,-1.3654583999999999
4.9606614,12.509417,-0.9932298,-1.6543453000000001,-2.5150718999999997,-1.2802863000000002
5.0893736,14.233203,-1.1117428999999999,-1.427051,-2.1653252,-1.8301697000000001
4.9263477,13.897248999999999,-1.3118597,-1.5414921999999998,-1.6186358,-1.973915
4.901611,12.430024000000001,-1.2802659,-1.472831,-0.75785685,-2.0878327000000003
4.471650599999999,10.387167,-0.9899162,-1.5026412,-0.18242182,-2.1219015
4.3241773,8.288707,-0.28918123,-1.4254453,0.05391322,-2.1304187999999997
4.579791999999999,6.680886,0.10023086,-1.2252909,0.024644048999999998,-2.0452466
4.6611753,5.732111499999999,-0.16292064,-0.9229301,-0.114807755,-1.8136763999999999
4.6795053,5.426228500000001,-0.3836277,-0.5966059,-0.18826866,-1.4282727
4.238119999999999,5.481515,-1.1442081,-0.297439,-0.18985692,-0.9188286
3.0685813,5.968515,-2.166446,0.016598081,-0.24469516,-0.3247534
6.9086419999999995,6.4863043,-1.1991981000000003,0.3381401,-0.39161697,0.23630013
7.598727,6.311776,-0.9856928,0.5542468,-0.54546773,0.62170374
6.3004184,7.204632000000001,-1.8908734,0.72352624,-0.42994440000000006,0.8734849
7.348485,8.381555,-1.8767477,0.90453434,0.12152728,1.1880979999999999
6.926799000000001,8.887459,-2.6425571,0.9854478000000001,0.8050331000000001,1.4798122999999999
7.068124000000001,9.500767,-2.3839544999999998,0.9646783999999999,1.3080893999999998,1.6395098999999997
6.795567999999999,9.577305,-1.9969462,0.93273884,1.4565995,1.6522857
6.632772,9.783636999999999,-1.6254045,1.0759431000000002,1.4017786,1.6767727
6.647022,10.293344,-1.6861308999999998,1.3766983,1.4411533,1.876386
6.4096513,10.288249,-2.0016005,1.6029278,1.7493784,2.2064277999999997
5.735482,9.704111,-2.0568584999999997,1.7424146,2.2167602000000004,2.4757845
5.8195667,10.82659,-2.1578941,1.8313042000000002,2.494634,2.8143435
6.799945,11.4751215,-2.1735234,1.9271227,2.5446725,3.0214267
6.8753815000000005,8.662873,-1.4140252,1.9228816000000002,2.547343,3.169937
6.37665,8.577199,-1.4458296999999998,1.8627201,2.573959,3.2258396
6.6586384999999995,11.683397,-2.3772986,1.7248391,2.4999572999999997,3.1656782999999997
7.3435625999999985,14.775959,-3.2760147999999996,1.5220318000000002,2.3541,3.0192973999999997
7.3222830000000005,14.945335,-3.3430717000000003,1.2723625,2.1071012000000002,2.7446175
5.937352,12.467978,-2.1874192000000003,0.98225385,1.7866412,2.3719897
4.741927,10.73991,-1.2792795,0.6713758000000001,1.379421,1.9269657
4.500515,9.837985,-1.2076354,0.36475635,0.9476962999999999,1.4553254
4.5264773,8.832124,-0.7960625,0.08899434,0.5479111999999999,0.9911201
3.6608013999999995,7.5562252999999995,-0.88372856,-0.1505172,0.20298178,0.52375585
3.6352699,7.342757700000001,-1.4175589,-0.3453483,-0.11107276,0.07127925
3.5123705999999997,7.2718229999999995,-1.4796261999999998,-0.4182856,-0.3761708,-0.33965853
3.6195923999999997,7.386543,-1.5296937,-0.38421679999999997,-0.54386204,-0.7405083
3.5775980000000005,7.560410000000001,-1.8382009999999998,-0.41135666,-0.6370103,-1.1610454
3.5162970000000002,7.731058999999999,-2.1934237000000003,-0.50984555,-0.7456221,-1.5475136
3.5758553,8.022117999999999,-2.4590845,-0.5598841999999999,-0.84887576,-1.8301697000000001
3.4831038,8.222474,-2.7533223999999996,-0.47949430000000004,-0.8770978000000001,-1.9946669
3.4388494,8.349683,-3.004455,-0.3884754,-0.7605098000000001,-2.0611990000000002
3.2789452000000003,8.355122,-3.0658805,-0.37144098,-0.5864481,-2.0079663
3.2606156000000004,8.332713,-2.9467452,-0.46141270000000006,-0.53269196,-1.9100186000000001
3.4545171000000003,8.884202,-2.9654295,-0.5997998999999999,-0.7818028,-1.8631738000000002
3.4801444999999998,9.110455499999999,-2.869173,-0.6913598000000001,-1.3029581000000001,-1.8738203999999998
3.4544692,8.681807000000001,-2.174213,-0.7142411,-1.8017383000000002,-1.899372
3.9309344,9.064227,-1.6882952000000002,-0.76323247,-2.0359613999999997,-1.8834022000000001
4.6248507000000005,10.836281,-1.9981337,-0.84360486,-2.1046402000000004,-1.8216525000000001
4.9539003,11.684863,-2.1506922000000004,-0.9048136,-2.067901,-1.7215753
4.803726,10.939835,-1.5430726000000001,-1.1363839,-2.4937612999999996,-1.3542708
4.898105999999999,11.513879,-0.58951944,-1.6798968,-3.4099019999999998,-0.5818753000000001
5.227251,13.440722000000001,-0.32552522,-1.6351639999999998,-3.8836718,-0.8277921999999999
5.055079,14.154204,-0.48422250000000006,-1.6330521999999998,-3.3529345999999998,-1.2419589
4.6639237,13.08076,-0.96248823,-1.4967768999999997,-2.2952127,-1.6449205000000002
4.2863107000000005,11.134427,-1.1242118,-1.4823954,-0.95055866,-1.7002823
3.9976656000000004,9.118758,-0.5766674,-1.3855121000000001,0.21415189999999998,-1.8024888
4.1091584999999995,7.346272999999999,0.25368005,-1.2236853,0.9194918,-1.8035535
4.1442003,6.119139,0.12669158,-0.92451835,1.0823833999999999,-1.7253102999999999
4.2168117,5.3743315,-0.04954082,-0.58541834,0.839643,-1.536326
4.161822,4.982573,-0.41414902,-0.32299063,0.37864918,-1.2632518999999998
2.708886,5.0247307,-2.1784651000000004,-0.17448056,-0.11906636,-0.8943416
3.770858,5.6504593000000005,-1.6593063000000001,-0.08450884,-0.52682763,-0.5046794
7.500804400000001,5.6823792,-1.2299685,0.031520646,-0.8733628000000001,-0.08307767
8.425952,6.606541,-0.70160645,0.15767305,-1.0809697,0.24640559
7.173487700000001,7.103836,-1.8114244,0.35836846,-0.96544635,0.5099154
7.717335,8.548976,-1.8555734,0.61440825,-0.39268163,0.8298341999999999
7.6484976,8.898204,-2.156965,0.76986474,0.36161476,1.1439236000000002
6.984652499999999,9.008318,-2.0498006,0.7959399,0.9354616,1.343537
6.1112,9.085479,-1.7557063999999998,0.7778409000000001,1.1169758,1.4276444
5.6336713,9.800339,-1.8089534999999999,0.92795664,1.0174397,1.5122928999999998
5.626106,10.672844,-2.0534779999999997,1.2436343,0.9604896,1.707124
5.5976725,10.675937,-2.4788704,1.5066031000000002,1.2064065000000002,1.9205778000000002
5.286761299999999,10.539745,-2.7420982999999994,1.6396843999999997,1.9026881000000002,2.0148082
5.5295143,11.325724000000001,-2.561317,1.7424146,2.3253546000000003,2.323557
6.3930545,10.780583,-2.0167606,1.9026531999999998,2.4222553,2.5662973
6.247018,8.148187,-1.0952322,1.8946596000000002,2.3269603,2.694579
6.1514225,8.326449,-0.97443056,1.8462266999999999,2.3988153999999997,2.7813566
6.5783186,11.190777,-1.740939,1.7445438000000002,2.431296,2.776557
7.2465205,14.181057999999998,-2.87784,1.5843052,2.3503826,2.681803
7.0733433,14.671774,-3.1122324,1.37511,2.1624804,2.5103942999999997
5.772420400000001,12.268512,-1.9963716,1.1361046000000001,1.8664900000000002,2.2511432
4.7255607,10.353831,-1.0739813999999999,0.86622435,1.4688517,1.8918322
5.0184765,9.435836,-0.8517133,0.56599283,1.0307566,1.4377673
5.327501,8.875689,-0.70027524,0.26413813,0.6181956000000001,0.9448165000000001
3.5327116999999997,7.4255495,-0.85966206,-0.037664205,0.24663247,0.41196752
3.8946763999999994,7.237260000000001,-1.2677393999999997,-0.29476866,-0.0450644,-0.07030186
3.5938692000000003,7.259947299999999,-1.5462904,-0.43371433,-0.26597074,-0.46581092
3.6393206,7.280384,-1.4821928999999998,-0.44223154,-0.40811035,-0.7921351
3.602153,7.3353649999999995,-1.5397493999999998,-0.42360887,-0.44484952,-1.094496
3.390276,7.210952799999999,-1.7836802999999999,-0.49918163,-0.41502184,-1.3601177
3.153566,7.04082,-2.0464773000000003,-0.6418448,-0.4475024,-1.5283325
3.0507492999999997,7.1154910000000005,-2.2776422999999997,-0.6551442,-0.63275164,-1.6214807
3.1642153,7.5503925999999995,-2.5727037999999998,-0.5172806999999999,-0.8073544,-1.6859008000000002
3.3950737,8.099326,-2.857183,-0.43106142,-0.8275828000000002,-1.6848536
3.6572387,8.413723,-3.0134573,-0.48427650000000005,-0.8126777,-1.5948643999999998
3.8907309000000003,8.956489,-3.1024543999999996,-0.68921304,-1.0575473,-1.5198152
3.8926656000000004,9.357478,-2.854463,-0.79463094,-1.4168583000000001,-1.5682656000000001
3.7587721,9.13181,-2.3186407000000004,-0.84145814,-1.6782386999999999,-1.6337329
3.8649885999999998,8.962100999999999,-1.4985403999999998,-0.9000139000000001,-1.8373953,-1.6976118999999998
4.5135107,10.364624000000001,-1.2747973999999997,-0.98679173,-1.8837163000000001,-1.7071938999999998
4.767325,12.127742,-1.7434672999999998,-1.0597290000000001,-1.9630417000000002,-1.6012697
4.180985,11.861699,-2.0857232,-1.3232213,-2.5443234,-1.1072718000000001
4.083311,11.243928,-0.92646986,-1.6202589,-3.1400043999999996,-0.5642999
4.5898666,12.409981,0.13426682,-1.6229118,-3.266698,-0.797982
4.8134947,14.0272255,0.12856863,-1.3828418,-2.6002264,-1.2589757
4.3442407,14.406198999999999,-0.8243811,-1.3833829,-1.6622689999999998,-1.3617233
3.9888263,12.659887,-1.4031745,-1.3195038000000001,-0.6859841999999999,-1.5208799
4.1235147,10.2984,-0.5496704000000001,-1.3253506000000002,0.09918706,-1.669931
4.1965857,8.281975,0.023118412,-1.2891525,0.48671997,-1.7950188000000002
4.250436,6.774777,0.03482127,-1.1853403999999998,0.42284092,-1.8269582999999998
4.1878996,5.831337,-0.28264987,-0.964434,0.06831218,-1.7125169999999998
3.4405348,5.146538,-1.0121344,-0.67113143,-0.36871827,-1.4889404
2.1979156000000004,5.165499700000001,-2.0770755000000003,-0.38845792,-0.6284930999999999,-1.129612
4.7189426,5.517457,-0.6332855,-0.1552994,-0.61411154,-0.6931225999999999
6.554855,5.3995953000000005,-0.9018671,0.09061749,-0.5348038,-0.20977113
6.654683599999999,5.689648,-1.0256377,0.29930650000000003,-0.59866536,0.16179202
5.8672023,6.6592899999999995,-1.8109070999999999,0.45418704,-0.7062126,0.3949331
6.9744244,7.79893,-2.0103729,0.6767164999999999,-0.5177694,0.67282444
7.1152897,8.661369,-2.4251254,0.91678655,0.025726152999999998,1.0395879000000001
6.7486415,9.447078999999999,-2.7791414,1.0307217,0.70551443,1.3238497
6.239376,9.728063,-2.7641156000000002,0.99876463,1.227176,1.4217975
5.6620474000000005,9.485281,-2.2198849,0.90614,1.4087076,1.4159333
5.667487,9.52196,-1.7269089,1.0030059,1.3538693000000002,1.5165341
5.8050294000000005,9.723246000000001,-1.8122671000000001,1.2920847,1.2931843,1.7891021
5.763533,9.819435,-2.1153827,1.572629,1.5125023000000002,2.0946569999999998
5.7421193,10.105466,-2.3466432,1.7791537,1.8563845,2.3283565
6.522543,11.745828999999999,-2.5500643,1.9596206999999999,2.1028599999999997,2.6339113999999997
6.8772106,10.480858,-2.0342383,2.1054779999999997,2.1800384999999998,2.8154254
5.911418,7.6766243,-1.2197021000000001,2.1501932,2.3439946,2.959677
5.6521163,8.189769,-1.3609697,2.0937667,2.5713062,3.0438018
6.507919,11.248697,-2.170516,1.9420453000000002,2.66339,3.040608
7.6643567,14.32516,-3.3483772000000003,1.7120807,2.55586,2.9437246
7.364258,14.6870775,-3.7267666,1.4480473,2.2865036,2.7414236
5.715936699999999,12.887096000000001,-2.6752715,1.1643265,1.9186753,2.3996880000000003
4.525913,11.312679,-1.5879782,0.8316145,1.468328,1.9259185
4.6897335,10.192242,-1.0663007,0.45792204,0.9652718000000001,1.3446192
4.414821599999999,8.962436,-0.5995943,0.09115855,0.5037543999999999,0.75000286
3.8128905,7.4668350000000006,-0.7689984000000001,-0.2255489,0.16147786,0.18734364
3.7365443999999997,7.0572925,-1.3997461000000002,-0.5002462999999999,-0.07061602,-0.32792990000000005
3.7883358,6.7744894,-1.2812713,-0.68495446,-0.29312804,-0.7884001
3.8185122000000002,6.7210984,-1.3396611999999999,-0.74351025,-0.49699995,-1.175933
3.7493966,6.823656599999999,-1.7420210999999999,-0.74989814,-0.6439218000000001,-1.5336558
3.4397879000000002,6.8549156,-2.1464498,-0.8201651,-0.7514515,-1.8509216
3.4068532,7.030812299999999,-2.4054642000000004,-0.8734151,-0.79564327,-2.0446882
3.5638459000000005,7.7036314,-2.6798682,-0.81910044,-0.7860614,-2.0803452
3.840721,8.367946,-3.088367,-0.6987949000000001,-0.7397404000000001,-2.0074253
4.0277080000000005,8.361462,-3.4217739999999996,-0.6152111,-0.69821894,-1.8727381999999997
3.9176419,8.068201,-3.4429672,-0.6173404,-0.7770031,-1.7242283
4.092571700000001,8.510257000000001,-3.2917303999999996,-0.6556853,-1.0053794,-1.6363858
4.241721,9.187327999999999,-3.1607485,-0.6993185000000001,-1.3098696,-1.5597309
4.187755999999999,9.219812,-2.8251578999999998,-0.7211526,-1.6138186,-1.535785
4.165959,9.055435000000001,-2.1655748,-0.77225584,-1.8581648000000002,-1.5698538999999998
4.680473,10.362191000000001,-1.9935081000000001,-0.85475755,-1.9640887999999999,-1.6060518999999998
5.196317700000001,11.842937,-2.071291,-0.94738215,-1.8405893,-1.5969937
4.917336,11.004335000000001,-1.6055803999999998,-1.0943040000000002,-1.8150377,-1.5102334
4.5715466,10.517268,-0.8334599,-1.4195635,-2.1754133999999996,-1.1594222
4.622964,11.859076,-0.4450821,-1.3285272,-2.033291,-1.4926579
4.690098,13.295423499999998,-0.6593248,-1.3748482,-1.8198372999999999,-1.7779843999999998
4.65474,12.907094,-1.0376087,-1.3503611999999998,-1.2092513999999999,-1.9712272000000002
4.673539,11.486987,-1.0757531999999999,-1.429669,-0.55820864,-2.089927
4.21323,9.621483,-0.9198139999999999,-1.4498973999999998,0.010297443,-2.1442242
4.29854,7.9153075,-0.5879201999999999,-1.2981933,0.28176597,-2.0734336
4.543639,6.7240104999999994,-0.58737427,-0.9873153,0.30625293,-1.8605036
4.68846,5.842264,-0.5085189,-0.60723495,0.20778145,-1.5299207000000001
4.7001534000000005,5.241846,-0.6515868,-0.29316294,0.08002335,-1.0710562
4.0963454,4.892062999999999,-1.5283052,-0.057857665999999995,-0.11691961,-0.5477715999999999
3.7094038,4.930169,-1.5255183,0.17739527,-0.33304372,-0.018116517
7.610381599999999,5.108278299999999,-0.21388839,0.38713148,-0.49220031,0.41037926
5.4067110000000005,5.451636,-1.7310078000000002,0.5069134,-0.5566204,0.69251174
7.050952400000001,7.531794500000001,-1.3565833999999999,0.6873630000000001,-0.27928758,0.9746442
7.4276757,8.911342999999999,-2.4082127,0.9466142,0.3403392,1.3882698
7.4795723,9.424535,-2.476859,1.1137643999999998,0.9461255,1.7364106
6.8603168000000005,9.326536,-2.1836555,1.2069126000000001,1.3522811000000001,1.9466703999999997
6.382894,9.176181,-1.5527548,1.230335,1.4140308000000001,2.0307779999999998
6.0853043,9.07006,-1.3329862,1.3682159,1.2873374,2.0872045
5.913764,9.623312,-1.830214,1.6066803,1.3416346000000001,2.195275
5.6844573,9.458208,-2.2195497000000004,1.7765182000000002,1.8388265,2.2495722999999996
5.442489599999999,9.225194,-2.188214,1.8952006000000001,2.2944970000000002,2.4065995
6.290851,11.123183000000001,-2.5487235,1.9889073,2.6123042,2.5774847999999997
7.206231,11.587333000000001,-2.4613063,1.9223580000000002,2.7432387,2.7084367
6.5399246,8.828217,-1.5673306,1.8068521,2.8475745,2.8159666000000003
5.9158907,9.608286,-1.5343864,1.6673828000000002,2.837469,2.857488
6.3095927000000005,12.58966,-2.1981835,1.4970386999999998,2.6623428,2.826072
6.908181699999999,15.278991,-3.1015158,1.3000608999999999,2.3972273,2.7254539
6.4836035,15.271319,-3.4363593999999997,1.0844951999999999,2.0709205,2.543416
5.450266,12.756374000000001,-2.3531744,0.8348259,1.6748703,2.2804472000000002
4.8882127,10.867042,-1.5492208,0.55162877,1.1808723,1.9227245
5.3217935999999995,10.155733999999999,-1.3847009,0.27214918,0.6693163000000001,1.5048404
4.214102,8.48281,-1.3598205,0.018779743,0.20619320000000002,1.0587691000000001
4.3610387,7.923686999999999,-1.5722436000000002,-0.22235495,-0.18292795,0.56316537
3.855,7.710814,-2.0174692,-0.43795547,-0.5092346999999999,0.05639159
3.6626017,7.4414277,-1.8419743000000002,-0.5550496,-0.76900953,-0.40777870000000005
3.47278,7.2378445000000005,-1.8003726999999998,-0.56304324,-0.9340304,-0.8283158000000002
3.2327467999999997,7.235919,-1.9243061999999997,-0.5859419,-1.0101616,-1.2579112
3.0646932000000002,7.208338,-2.0787033999999998,-0.6950599000000001,-1.0639178,-1.6928123
2.9940548,7.4037814,-2.2824116,-0.7754498000000001,-1.0660471000000002,-2.0106018
2.9397062999999997,7.8720584,-2.6637123,-0.71530575,-0.9862158000000001,-2.1735108
3.1186202,8.172148,-2.922171,-0.65727353,-0.8643045,-2.2613357999999995
3.1102404999999997,8.138753999999999,-3.0357997,-0.6822841,-0.77115625,-2.3523722
3.2435400000000003,8.252057,-3.0297377,-0.8201476999999999,-0.7445225999999999,-2.4045227000000002
3.7237976,8.970605,-3.124165,-0.96282834,-0.8930501000000001,-2.392288
4.012117,9.476450999999999,-3.1106427000000005,-1.0144552,-1.1954108,-2.3113744
4.0082574,9.074235,-2.5132031,-0.96761054,-1.5824027,-2.1937392000000004
4.2201157,8.776856,-1.7778001,-0.9127723,-1.8464361,-2.0984442000000003
4.95299,10.253629,-1.8828577000000002,-0.9165073,-1.9183089,-1.9845266
5.535605,11.310669,-1.9964194,-0.9452529000000001,-1.8118438000000001,-1.8109885
5.2009144,9.750291,-1.3264165,-1.1805406999999999,-2.0103923999999997,-1.404833
4.862863,9.499589,-0.5045731999999999,-1.4376626000000001,-2.3601389999999998,-1.0029185999999999
5.290525,11.619013,-0.44590572,-1.2407021999999999,-2.12431,-1.5006516
6.034193,13.506669,-0.7567784000000001,-1.3397148,-1.750635,-1.6374505
5.969961,13.318982,-1.3354282,-1.3215982,-1.0915986999999998,-1.8072535
5.3607035000000005,11.697312,-1.2945161,-1.3732425,-0.47835985,-1.8897727
4.617161,9.717682,-0.73495287,-1.3216157,-0.062081363,-1.9318176999999999
4.3908606,7.8042164000000005,0.052720323,-1.1778704,0.06885324,-1.8338698
4.674075599999999,6.352908599999999,0.14500242,-0.92395985,-0.062081363,-1.595388
4.8079977,5.6037345,-0.062345013,-0.5981767,-0.33143803,-1.2626933999999999
4.5099290000000005,5.255904699999999,-0.5496896,-0.30911526,-0.5214694999999999,-0.8943242
3.2181423,5.3483114,-1.8214225,-0.080232784,-0.53798026,-0.5121145
5.701973000000001,5.856878,-0.77816343,0.124162726,-0.5087111,-0.10382964
7.348523599999999,6.0790315,-0.6167942,0.33550465,-0.5512971,0.27358037
5.8927817000000005,6.973026299999999,-1.8028147,0.50530773,-0.6343399000000001,0.5519953000000001
7.1700788,8.246962,-1.8309034,0.6836455,-0.49487066,0.83465135
7.1727414000000005,8.732305,-2.269847,0.9013578000000001,-0.048781954,1.1992855
7.0797696,9.134464,-2.1209657,1.0376505999999999,0.5027072,1.4990108999999998
6.372751999999999,9.249922,-2.1907902000000004,1.0828896000000001,0.9748710999999999,1.658691
5.610151,8.904103,-1.9474245,1.1020533000000001,1.1627733,1.7401456000000002
5.4113364,9.113489999999999,-1.655715,1.2676152,1.157991,1.8748151999999998
5.863045,9.667356,-1.8282028000000001,1.4874568000000001,1.3224709,2.0606055
6.090715,9.765172999999999,-2.2393447999999996,1.6732471000000002,2.5691946,1.9743688000000001
5.8173832999999995,9.792841000000001,-2.4057322,1.7775828999999999,2.8917837000000004,2.303346
6.0065446,10.962197,-2.4822125,1.9798666,2.783172,2.7499583
6.575694599999999,11.265006,-2.2752385,2.0224352,2.233812,2.9069855
6.094306,8.768094,-1.5426129,1.9314163,2.0368516,3.0746767999999998
5.778118599999999,8.923946,-1.5482537,1.7871473000000002,2.0815668,3.2088227000000002
6.5974526,12.150774,-2.054158,1.6354433000000002,2.084761,3.1971116000000004
7.425243400000001,15.040776999999999,-2.9439870999999997,1.4693577,1.9777721999999998,3.0326142000000003
6.918965299999999,14.96515,-3.1881955,1.2809145,1.7903936000000003,2.7382472
5.605746,12.940191,-2.1545229999999997,1.0238101000000002,1.5040026000000002,2.2831175
5.2397585,11.419758,-1.4336671,0.70759135,1.1798077,1.7390634999999999
6.7705054,10.987805,-0.34028313,0.37222636,0.8699943000000001,1.1689517
2.485258,8.196827,0.8445882,0.075206235,0.6070255,0.635038
3.4481869,6.811456,-0.8759714,-0.20797344,0.34566244,0.1357168
3.2361273999999995,6.914492599999999,-1.8229069,-0.47467719999999997,0.0150796445,-0.34815827
3.3283139999999998,6.589867599999999,-2.0185802,-0.6365041,-0.35911894,-0.7899884
3.3251727,6.744447,-1.5152328000000002,-0.6503445999999999,-0.6439218000000001,-1.1721979999999999
3.578939,6.808717,-1.390447,-0.642351,-0.7700741999999999,-1.5144745000000002
3.4687769999999998,6.8966894,-1.6384002,-0.72860515,-0.7647509,-1.7923659
3.6870227,7.3556004,-2.155672,-0.7887491999999999,-0.71897095,-1.9211711999999999
3.9577877999999997,8.0702505,-2.6855474,-0.70090675,-0.7477165,-1.9483285
4.1238976,8.432647,-3.0587267999999996,-0.5502674,-0.75464547,-1.9430052
4.009924,8.284483,-3.236453,-0.49171162,-0.7450635999999999,-1.9153243000000002
3.8578059999999996,8.289119,-3.0808012000000002,-0.56677824,-0.871216,-1.9100009999999998
3.915516,8.952169,-3.2290408999999998,-0.69293064,-1.1065038,-1.9105246
3.9445333,9.430539999999999,-3.3539413999999996,-0.7887491999999999,-1.3758605,-1.8807144
3.8169131000000003,9.044116,-2.8792287999999995,-0.8132362,-1.5557865,-1.8322816000000002
4.001774299999999,8.832766000000001,-1.9230324,-0.8638158000000001,-1.7117666,-1.7806373
4.7836246,10.491305,-1.7092589,-0.9197011999999999,-1.8070439999999999,-1.7013294999999997
5.133130599999999,11.644362,-2.056102,-0.96761054,-1.8352661,-1.5778299999999998
4.491905,10.629000999999999,-1.7687116999999999,-1.2454843999999998,-2.3265936000000003,-1.1908381000000001
4.371554,10.798022,-0.8479209000000001,-1.5089768,-2.8727596,-0.8847423000000001
4.8135905,12.398775,-0.33492008,-1.362596,-2.621502,-1.4032272
5.1796155,13.475179999999998,-0.67792296,-1.4280808,-2.0817240000000004,-1.6001877
5.1900167,12.800962,-1.3513448000000001,-1.4067702,-1.1815704,-1.7369865000000002
5.024491,11.260667999999999,-1.393071,-1.4477506000000002,-0.3607072,-1.8024539000000002
4.695767,9.118364999999999,-0.68103546,-1.3689839,0.218969,-1.8029950000000001
4.527062,7.12161,-0.14173675,-1.1480601000000001,0.38877209999999995,-1.6837541
4.411422,5.679142,-0.22717144,-0.8174773,0.13114405,-1.4750825
4.360665,4.9376097,-0.32217336,-0.4815887,-0.23722515,-1.2035965
4.155951,4.756982,-0.61789554,-0.23991296,-0.42992696,-0.87994266
2.7415142000000006,4.956983999999999,-1.971989,-0.06586873,-0.37936476,-0.50413835
5.7298417,5.4204826,-1.1480198,0.11246902,-0.27981117,-0.096359625
7.6291910000000005,5.4517694,-0.61362433,0.24288002,-0.31440362,0.17297958
6.161152400000001,6.474094,-1.5652523999999999,0.45954520000000004,-0.16961110000000001,0.4375366
7.477465,8.222837,-1.9596158,0.7778758000000001,0.34939745,0.8176344
7.702511,9.009323,-2.5236802000000003,0.9939998999999999,1.0424677,1.1737514
7.420617599999999,9.4232435,-2.2582397000000003,1.0594671999999998,1.6317607,1.3930694
6.492337,9.553908,-2.1179012999999998,1.0227455,1.8393675999999999,1.5107046
5.9895744,9.307889999999999,-1.7111551999999999,1.0674608,1.7073508999999998,1.6480446
5.9410677000000005,9.424775,-1.5496901,1.2644038,1.5221016,1.8684273
6.347785,9.335357,-1.8514553,1.4470176000000001,1.5439357,2.1191614
6.264304,9.287500999999999,-2.2278335,1.6003098,1.6748703,2.3384793
6.2779703,10.789997,-2.5868008,1.6998459,1.7983698000000001,2.5977132000000003
7.172291,12.504072,-2.6848099999999997,1.7648071,1.9208221,2.7829797000000003
6.7999160000000005,10.293689,-1.6858436,1.7674599999999998,2.0645325,2.9288197
6.0066977,9.332244000000001,-1.3860128999999999,1.7339323,2.1720622000000005,3.0001512000000004
6.5257416,11.695627,-1.9881546,1.6492838,2.1805793999999996,2.9714055
7.233132400000001,14.136918,-3.1160822,1.5337778,2.158763,2.8766517999999994
6.843116800000001,14.961835999999998,-3.8054589999999995,1.389509,2.0687912,2.7164304
5.513903599999999,12.923987,-2.940214,1.2000184999999999,1.9165634999999999,2.4566557
4.465148,10.731558999999999,-1.8798888999999999,0.92851514,1.6855168000000003,2.0914805
4.4087024,9.46676,-1.4866556,0.58358574,1.3650744,1.6491266
4.052052,8.365226,-1.034343,0.2263692,0.9663539000000001,1.1646931
3.6954885,7.2742167,-1.2753434,-0.089273594,0.53888786,0.6824063
3.6803381,6.916954,-1.3899393999999998,-0.32402040000000004,0.08323475,0.24005258
3.6009462,6.720198599999999,-1.4660943000000002,-0.43422046,-0.33569664,-0.15865043
3.5669197999999995,6.771808,-1.5314653999999999,-0.40493384,-0.6119821999999999,-0.52595496
3.6415040000000003,6.831452400000001,-1.746484,-0.37938222,-0.7344170999999999,-0.92094046
3.5679448,6.98493,-1.9646436,-0.44964918,-0.73600537,-1.2946328999999999
3.501319,7.262428,-2.2236485,-0.4682893,-0.74239326,-1.5810239
3.6472025,8.015452,-2.542891,-0.40015164,-0.79243183,-1.7865015
3.8622017,8.838272,-2.9833956,-0.3527834,-0.7482576,-1.9882616000000002
3.8910756,9.145237,-3.4635288999999996,-0.4102571,-0.6726499,-2.1479418
3.7738172999999997,9.316557000000001,-3.5474693999999998,-0.58327156,-0.6077062,-2.2283316
3.6372616,9.692045,-3.4540669999999998,-0.76850337,-0.69448394,-2.2464132
3.441435,9.862781,-3.1857727000000002,-0.91544265,-1.0357133,-2.2421722
3.3369906000000005,9.115349,-2.5770326,-0.96387553,-1.5174590000000001,-2.2192733
3.5050251000000006,8.704542,-1.8685691000000002,-0.9660223,-1.9018153999999998,-2.1761637
4.4116898,10.447003,-1.9898497,-1.0064616,-2.0939763,-2.102162
4.7675165999999995,11.291428999999999,-2.2106142,-1.0490476,-2.230775,-1.9877206000000003
4.3746279999999995,10.287233,-1.7805389999999999,-1.4456388,-3.027675,-1.4548541000000001
4.523135,10.698998,-1.1157841999999998,-1.7293595000000002,-3.649431,-1.0758383999999999
5.319408999999999,12.71232,-1.0221517,-1.6223708000000001,-3.216118,-1.5134098999999999
5.748325299999999,13.86125,-1.1896883,-1.5361341,-2.3872788,-1.7385922999999999
5.590222,13.042682000000001,-1.5152903,-1.4238046,-1.1533483999999998,-1.7838311999999998
4.9948697,11.2509575,-1.5069202,-1.3093635000000001,-0.07326892,-1.8040596000000002
4.3777595,9.306855,-1.2240117,-1.1640298,0.6645166,-1.7428508999999999
4.049792299999999,7.40923,-0.38630924,-0.9383239,0.87852895,-1.6342391
4.198022,6.01344,-0.026403256,-0.67483157,0.5990493,-1.4511366
4.3627047999999995,5.4375477,-0.23807943,-0.42516220000000005,0.089605205,-1.1801742
4.366459,5.3701754,-0.6818974,-0.2601413,-0.40383428,-0.8538674
2.536762,5.664528,-2.5348945,-0.1691224,-0.7524987,-0.47698104
6.709520299999999,6.040255,-1.0697676,-0.02591814,-0.9319011,-0.053773593
8.469422,6.080152,-0.07370310000000001,0.15505505,-1.0798875,0.30127874
6.3799443,6.0631914,-1.4071298,0.31475267,-1.0990512,0.5232497
7.557967999999999,7.516041,-1.3028193000000001,0.5452409,-0.6726499,0.78248346
7.55725,7.9933205,-2.013945,0.76616466,0.0853466,1.1279714
7.0861472999999995,8.548439,-2.0958745,0.89978707,0.8236906999999999,1.3739058000000002
6.388994,9.045812,-2.1878216,0.9594075000000001,1.2761673,1.4862351
5.6609654,9.001566,-2.1943147,1.0557497,1.3581454,1.5671312
5.4572096,9.647896000000001,-2.2107387000000003,1.2969018,1.2894841000000001,1.7279109000000001
5.850433,10.520888000000001,-2.4948634999999997,1.5401658,1.34804,1.9514875
5.812997,10.220952,-2.7344272000000003,1.7248914,2.100207,1.9876856999999999
5.5796103,9.9454565,-2.5198492999999997,1.8164339,2.5628066,2.2682123
6.2527065,11.421242,-2.5356224,1.9617676,2.630403,2.6264762999999998
6.958891,10.523168,-1.9956725,1.9809313000000002,2.2817214,2.7771156
6.418261,8.742428,-1.3517567,1.9010824,2.171015,2.8803866
6.436534,10.563228,-1.7687404999999998,1.7839707999999999,2.267881,2.9469187000000003
7.2331514000000015,13.603001999999998,-2.421936,1.6290729,2.286521,2.8787985000000003
7.511013,15.442879000000001,-3.0913072,1.4347653,2.1720797999999997,2.7089779999999997
6.398187999999999,14.068741000000001,-2.820523,1.1872426999999999,1.9634081,2.4071581
5.094995,11.712827,-1.8128990000000003,0.88008225,1.6429483,1.9722395000000001
4.683374400000001,10.066114,-1.356909,0.5138424,1.2357105,1.4633363000000001
5.8353686,9.432686,-0.8306539000000001,0.140691,0.8215614,0.9544333
3.2664763999999997,7.532636999999999,0.15748101,-0.17709856,0.44734535,0.49663344
3.4452943999999994,6.230565,-0.67670673,-0.43687338,0.055012777,0.072902404
3.381896,6.493621,-1.6715358,-0.6093468000000001,-0.33250266,-0.31408945
3.4502553999999996,6.344874,-1.7840729,-0.66257936,-0.63751644,-0.6904348000000001
3.520166,6.507287,-1.4659792,-0.61679935,-0.7700741999999999,-1.0146122
3.6208375,6.7617617,-1.6334201000000002,-0.6098704,-0.7072598000000001,-1.2770574
3.5911972999999997,7.2388306,-2.0074902,-0.6615147,-0.5614026,-1.4388843999999998
3.8118181000000004,7.861572,-2.4774623,-0.67748445,-0.48048913,-1.4990283000000002
4.0824300000000004,8.658093,-3.0008828999999997,-0.62851053,-0.5597969,-1.5474787
4.091949,8.919225,-3.3974202000000004,-0.5832541,-0.7524987,-1.6251982
3.9042822999999998,8.866074000000001,-3.4430919,-0.61041147,-1.047407,-1.7188874
3.7077756,9.057025,-3.2932436000000003,-0.6780081,-1.4455864,-1.8280054000000001
3.6656282,9.415868,-3.1764736,-0.72113514,-1.7064258999999997,-1.8993369999999998
3.7292468999999997,9.393459,-2.9187713,-0.74560463,-1.6835446,-1.8972078999999997
3.8653333,8.954755,-2.1457314,-0.7653094,-1.527041,-1.8658093
4.224808,9.217275,-1.4090835,-0.8089601,-1.3753195,-1.8077772
4.8199687,10.567642,-1.4326806,-0.85261077,-1.2363912000000001,-1.7055706999999998
4.565666,10.722194,-1.52231,-0.91114914,-1.2656604,-1.5682132
4.2553487,11.014486,-1.3762925,-1.22845,-1.9055156000000002,-1.19295
4.4611444,12.609523,-0.9499714,-1.3663136,-2.218523,-1.2573526000000002
4.942273999999999,13.990221,-0.8221497,-1.2949643999999998,-2.270691,-1.7364455
4.917001,13.727155999999999,-1.1394485,-1.4392334,-1.8230138999999999,-1.8594214
4.9232163,11.976486,-1.004042,-1.482884,-1.2512964,-1.9962204
4.7906537,9.907197,-0.46438894,-1.4530739,-0.6380574999999999,-1.9807916
4.6597385000000004,7.895339999999999,0.061473522,-1.2326912,-0.16746435,-1.8711326000000001
4.47076,6.135477,0.0751492,-0.907449,0.024137903,-1.6576788
4.276954,4.927449,0.06319735,-0.5444031,-0.020559978,-1.3499773000000002
3.9847655,4.430566000000001,-0.17595467,-0.26439992,-0.16055284,-0.9746966
3.4913208,4.315319000000001,-0.8164994000000001,-0.100967295,-0.33993778,-0.58075833
2.6525457,4.833883999999999,-1.7561278000000002,0.021450097,-0.5241398,-0.1969604
6.7557383,5.874423,-0.36149573,0.15027285,-0.70671874,0.1282817
5.929652,6.291483400000001,-1.7918397000000001,0.2743134,-0.8493818999999999,0.35025270000000003
7.024463000000001,8.118058,-1.7608491000000002,0.50960124,-0.58854246,0.6047041999999999
7.530042,8.973583,-2.3040552000000005,0.7773696,0.11465068,0.9858492
7.6605550000000004,9.279513,-2.0048087,0.9311855,0.9205739,1.3430308000000002
7.2897696,9.454961,-1.5273857,0.9519549,1.4172423,1.5266918
6.6547027000000005,9.216882,-1.3790027,0.94450235,1.4587636,1.5948296
6.162781,9.243295,-1.3019477,1.0919478,1.2623268,1.6826544999999997
6.076455,9.6952715,-1.6229719,1.3698391,1.1814133999999998,1.8647096999999997
6.1372204,9.7829,-2.1282346000000003,1.5822281999999999,1.5966272,2.025472
5.9098185999999995,9.90056,-2.399354,1.7190446,2.1220412,2.3012166
6.3879790000000005,11.499371,-2.6344072999999995,1.8420029999999998,2.4414363,2.6120946
7.071581,11.285031,-2.117681,1.8260332,2.4185376,2.8207662
6.5208187,8.342011,-0.9762693000000001,1.7733244,2.4249256,2.9863281
6.0574355,9.078611,-1.1761563999999998,1.6876286,2.4009795,3.066177
6.696639500000001,12.545196,-2.0898604,1.5715816999999999,2.2487345000000003,3.038496
7.2750497,15.222612,-3.1251035,1.4023023000000001,2.036869,2.9171259999999997
6.599367999999999,15.017075,-3.314801,1.1888485,1.7696416000000001,2.6717150000000003
5.352602,12.673419,-2.1657567,0.92746794,1.4039428,2.2937814999999997
4.5711727,10.537647,-1.2356281999999998,0.617131,0.9871233,1.8194709
5.0609975,9.605547,-1.1311358,0.29506537,0.5804267,1.3015268999999998
3.817047,8.031033500000001,-0.8283363000000001,0.017191493999999998,0.24612632,0.8234986999999999
3.9809062000000006,7.193025,-0.9102468,-0.19572122,-0.041311942000000004,0.36515778
3.4418757000000006,6.8801502999999995,-1.457293,-0.37671188,-0.31599185,-0.1362753
3.3068044000000003,6.6480947,-1.3858309,-0.47359508,-0.53159237,-0.62814397
3.2967105,6.600316,-1.2608536,-0.46879545,-0.6029065,-1.0577219
3.1820953,6.714136,-1.4717062,-0.5167222,-0.5326569999999999,-1.4143974
3.1626256,6.960662400000001,-1.7872236000000001,-0.65350366,-0.45279077,-1.6959887999999999
3.2931576000000002,7.33864,-2.1699705000000002,-0.72431165,-0.46450192,-1.8998607
3.5288617999999996,8.041798,-2.6054852000000004,-0.7205941,-0.52785736,-2.0851273999999997
3.7647480000000004,8.686595,-2.9980576,-0.7397578,-0.5810899,-2.2666416000000003
3.7917739999999998,8.707031,-3.0563326,-0.8297121,-0.6465571999999999,-2.3459494
3.5216122000000003,8.518272,-2.9803119,-0.9345889000000001,-0.77965605,-2.304969
3.6473364999999998,8.809733,-2.7947135,-0.9159488000000001,-0.98831016,-2.141013
4.044074500000001,9.199067999999999,-2.7894938,-0.80363685,-1.2406498,-1.9243651999999998
4.28021,9.025364,-2.1711197,-0.6870663,-1.4445218,-1.7231461
4.541427,8.990217999999999,-1.3779781,-0.6524564,-1.6074133,-1.5804653999999998
5.002358999999999,10.449311,-1.586695,-0.66149724,-1.6393528000000002,-1.4436666
4.8561879999999995,10.632745,-2.017316,-0.75625116,-1.7617877,-1.2211546
4.644876,9.765575,-1.4122918,-1.1208854,-2.3409576000000003,-0.70586354
5.1376504999999995,11.289886,-1.0182539000000002,-1.2497256,-2.8211152999999998,-0.61004496
5.82085,13.832683,-1.1736856000000002,-1.2225683,-2.7242319999999998,-1.0571808999999999
5.7480087,14.863453,-1.7276846999999997,-1.2220446000000003,-2.2616324,-1.407992
5.1531453,13.346785,-1.4484823999999998,-1.2427965,-1.4088472,-1.6326333
4.326667,10.754524,-0.7124474000000001,-1.2981758999999997,-0.53159237,-1.8083181000000002
3.7804830000000003,8.40973,-0.09156385,-1.3040053,0.14604916,-1.9137012
3.8594913,6.7285976,-0.0064068837,-1.1975577,0.36697292,-1.9626751
4.130611,5.6847734,-0.095078535,-0.9548173000000001,0.24932028,-1.8737854999999999
4.1111507000000005,4.950328400000001,-0.3088903,-0.6513918000000001,-0.024818582000000002,-1.637974
3.3146286,4.693890000000001,-1.2170493999999998,-0.4022635,-0.2978928,-1.2584171999999998
2.9858759999999998,4.944812000000001,-1.4241095,-0.20849703,-0.5401096,-0.76654863
5.58235,5.0101066,-0.8279724,0.024661502000000002,-0.6971369000000001,-0.1990897
6.7609770000000005,5.540039,-0.8247450000000001,0.27164304,-0.8578991,0.28317967
6.04557,6.1546593000000005,-1.8697374,0.42495278,-0.99469805,0.57170004
7.062492999999999,7.697636,-1.7872236000000001,0.5851914,-0.7445225999999999,0.80805254
7.391082300000001,8.620457,-2.2496781,0.7427423000000001,-0.09880309,1.132771
7.152869,9.322954,-2.2354755,0.79810417,0.6192776999999999,1.3914812
6.822756299999999,9.538567,-2.221915,0.76564103,1.1042348999999998,1.5176511000000001
6.137392500000001,9.409921,-1.7030723,0.7810872,1.2181525,1.5783361
5.93605,9.906421,-1.3770107,0.991347,1.1404331,1.7247168999999998
5.9140706,10.445030000000001,-1.6782110000000001,1.284126,1.1047759,1.9711923999999998
5.615016000000001,10.161192999999999,-2.0555465,1.5055733999999998,1.4177833,2.1750643
5.107924,9.766849,-2.0042915,1.67967,1.7707238,2.414628
5.9138885000000005,11.44078,-2.0529037,1.8664900000000002,2.0341988,2.6642625
7.0565553,11.017407,-1.7260088,1.937298,2.1443987,2.8234365
6.645566499999999,8.568082,-1.2246438,1.9511384999999999,2.3339067000000004,2.9304428
6.418031,9.713429,-1.5861874,1.9000352999999999,2.5143737999999995,2.98474
7.059667599999999,12.618055,-2.2478776000000003,1.7733418,2.5122445,2.9299016
7.658371000000001,14.730057999999998,-3.136634,1.5811635,2.4020443,2.8117254000000003
6.8640419999999995,14.137866,-3.0306284,1.34057,2.189114,2.5801724999999998
5.34109,12.115618,-1.8533131999999999,1.0504613,1.8532255000000002,2.2187324
4.454880999999999,10.387599,-1.1999547,0.7140141999999999,1.4263005,1.789137
4.9546566,9.482044,-1.2075011999999998,0.36800268,0.91207415,1.3079148999999999
3.8401847,7.8581724,-0.88151634,0.094911,0.44308674,0.87886053
4.0113797,6.916465799999999,-0.8769195,-0.17388715,-0.03544764,0.37899825
3.6750612,6.637311500000001,-1.2161778,-0.3868173,-0.4346917,-0.14425147
3.7217580000000003,6.5232134,-1.2412308,-0.48635346,-0.7109773,-0.6121741999999999
3.7103806000000006,6.6739902,-1.3853713,-0.46188393,-0.79775506,-0.94753927
3.6716902,6.884977,-1.7933337999999999,-0.46134287,-0.7343996,-1.2051673
3.560628,7.170136500000001,-2.1923609,-0.54490924,-0.60716516,-1.3973455
3.6402977,7.716991,-2.5504951,-0.6593679,-0.5587323000000001,-1.5288386
3.82354,8.3633585,-2.8893033999999997,-0.6976954000000001,-0.7375936,-1.6645903999999998
3.7123053,8.345181,-3.2168303,-0.67587876,-1.02292,-1.8908199
3.4064894,7.984767999999999,-3.3036727999999997,-0.71897095,-1.266184,-2.1021442
3.264944,8.173967,-3.2355720000000003,-0.8249124,-1.3832957000000001,-2.2416136000000004
3.666921,8.894258,-3.2237544,-0.95534086,-1.4551682,-2.2692945
4.0706506000000005,9.059257,-2.9936618999999998,-1.0218729,-1.4610151000000002,-2.2016978
4.082726999999999,8.606475999999999,-2.1915565,-1.0027092,-1.4455864,-2.0989504
4.0812902,8.503812,-1.3315209,-0.94095933,-1.4349399,-2.0031319
4.623979,10.047047000000001,-1.2244426000000002,-0.9154076999999999,-1.3843602,-1.8817616999999998
4.8161473,11.011269,-1.4852478999999998,-0.87975067,-1.3753195,-1.7082236000000002
4.3961277,11.075778,-1.8404421000000002,-1.1884819,-1.9741768,-1.1620576
4.6046915,11.685342,-1.3012868999999998,-1.3769251,-2.4617869999999997,-0.9964957
5.4436965,13.238853,-0.9776100000000001,-1.185829,-2.449552,-1.4670714
5.885944,14.0905285,-1.0105351,-1.2236329,-2.0471141,-1.6214458
5.9011325999999995,13.345529999999998,-1.2478676000000002,-1.1682711000000001,-1.2640547,-1.7023767
5.3265915,11.574663000000001,-1.2323722,-1.25929,-0.5997126,-1.7508096000000002
4.859827,9.466731,-0.7141042,-1.3178632,-0.22549655,-1.8290701
4.600535400000001,7.4634160000000005,-0.18375020000000003,-1.2630249,-0.20313887,-1.8578157
4.438371,6.108729,-0.15031756,-1.0495712,-0.40222856,-1.7939366
4.333208,5.41646,-0.36027947,-0.76368624,-0.5102819000000001,-1.5400087
3.8595010000000003,5.354986,-0.80903906,-0.493806,-0.47514844,-1.1482172
2.5257294,5.9443526,-1.9690106,-0.21966714,-0.34367278,-0.59620446
6.0216184,6.3815627,-1.3293853,0.11728612,-0.25370106,-0.007452556
6.5671515,5.663168,-1.2195777,0.37599629999999995,-0.36336009999999996,0.47589892
5.580195,6.2206150000000004,-1.3827952,0.6554584,-0.33567917,0.9017417999999999
6.3752804,7.0415095999999995,-1.8078617,0.9583603,0.012444196999999999,1.3451777
6.708055,7.9680853,-2.5054076000000003,1.1047585,0.50963616,1.6523381000000001
6.689447400000001,8.769491,-2.4789467,1.0610903999999999,0.9700889000000001,1.7534624
6.5008040000000005,8.800664,-2.2857444,0.8976752,1.1335216000000001,1.718329
6.28793,8.85576,-1.5574378,0.8918109000000001,1.0563257,1.7508096000000002
6.328239,9.289119,-1.3553766999999999,1.1132582,1.0174745,1.9589401000000002
6.3425082999999995,9.886118,-1.788823,1.3299233999999998,1.5109315,2.1042736
5.933426,9.97682,-2.1000883999999997,1.5093083,2.0225049999999998,2.2341611
6.034097,11.589766000000001,-2.2852657,1.7115921000000003,2.2668334999999997,2.6083772
6.8181696,12.891675,-2.2396127999999997,1.8680957999999999,2.0539033,2.7371998
5.899236,9.110971000000001,-1.3877462999999999,1.8606605999999999,1.9671432,2.8415529999999998
5.3620543,8.459462,-1.4681818000000002,1.7595186999999999,2.1811380000000002,2.942695
6.381716,11.731214999999999,-2.1177192000000002,1.6573122999999998,2.3562644,2.953865
7.5614543,14.523198999999998,-3.3177986000000006,1.5183666,2.3653226000000003,2.890527
7.4569325,14.835087,-4.0840483,1.3485636,2.2498167000000002,2.7494520000000002
5.873034,13.000123,-2.9566956,1.1350924,2.004406,2.5072527
4.5178394,11.235673,-1.5343673,0.8683886000000001,1.5992975,2.1622884
5.43117,10.363158,-0.78196543,0.5639159,1.0909355,1.7130232
3.8388631,9.2495775,0.0031794999,0.27698374,0.5905496,1.2115726
3.5269367999999996,7.4002,-0.41973230000000006,0.017732546000000002,0.17001252,0.68882906
3.8130534,7.701639,-1.6558778000000003,-0.2361605,-0.14404203,0.14159857
3.8226876000000005,7.574430499999999,-2.0053833,-0.45121998,-0.36868334,-0.37102209999999997
3.8004599000000003,7.4955940000000005,-1.7122948,-0.5401096,-0.5400921,-0.80539966
3.8266335,7.4009757,-1.5805850000000001,-0.54117423,-0.65027475,-1.1812214
3.4729523999999996,7.276908000000001,-1.7657046000000003,-0.6093119,-0.7599338000000001,-1.5581076999999999
3.264925,7.2112875,-2.0290668000000003,-0.70991266,-0.8307418,-1.8758973
3.1627595,7.5441008,-2.4105779999999997,-0.70195395,-0.83128285,-2.0531704
3.1836946,7.961755,-2.8660509999999997,-0.65456825,-0.7354468000000001,-2.111185
3.2863385999999997,8.119753,-3.0966412999999995,-0.67957884,-0.65879196,-2.1660057999999998
3.3083080000000002,7.8962784,-3.0607377999999996,-0.8169188000000001,-0.6918135999999999,-2.2101977
3.5329127000000002,8.060932000000001,-3.0614752999999997,-0.9723578000000002,-0.89887947,-2.2133915
3.9934998,8.802321000000001,-3.1057297999999998,-0.9989741,-1.2640547,-2.1771933999999997
4.0938935,9.107658,-2.9403189999999997,-0.9052848,-1.5717388,-2.1122499
4.017949,8.665678999999999,-2.169731,-0.81533056,-1.6356178999999997,-2.08511
4.250024,9.216115,-1.7499987000000001,-0.82864743,-1.4716616000000002,-2.0441122
4.9171734,10.992872,-2.0527503,-0.8946383,-1.1655657,-1.9802331000000002
4.9232830000000005,10.517364500000001,-1.8487643,-1.1277968999999999,-1.1751477,-1.7848784
4.5912166,9.2511,-0.85586965,-1.4477332,-1.7053612,-1.5107396
4.867795,10.768506,-0.5366939000000001,-1.429093,-1.8442894,-1.8748326000000002
5.6239989999999995,13.171106,-0.7810461,-1.2257447,-1.4833728000000002,-2.1809285
5.9144825999999995,13.970291,-1.4307941000000002,-1.0628531,-0.52092844,-2.1010797
5.496685,12.678208,-1.3308122,-0.9148666999999999,0.4585329000000001,-2.0159075
5.124559,10.666696,-0.52486646,-0.72481775,1.4172597,-1.8588629
4.979001,8.559136,0.41571003,-0.51616365,1.9612962999999999,-1.6720254
5.613522,7.338725999999999,0.6362543,-0.30855677,1.9863069,-1.4175738000000002
5.9897275,6.8352923,0.43720996,-0.14193018,1.5689638000000001,-1.1402236000000001
6.199469000000001,6.6310863,-0.07177817,-0.03333579,1.0435673,-0.8213693999999999
5.4334393,7.0900354000000005,-1.5439537,0.050754175,0.7545058000000001,-0.44713590000000003
6.362869,7.5260869999999995,-1.0812694,0.13538519,0.6176895,-0.010105456
9.011880999999999,6.8239923,-0.07151002,0.27644270000000004,0.4590565,0.45938809999999997
6.9945455,5.7049327000000005,-0.6294356,0.444675,0.21472786,0.8171108
7.753603,6.341264,-0.06879978,0.61608374,0.17746508,1.118948
7.539638,6.0776905999999995,-0.8610603000000001,0.84444267,0.41542327,1.5219096
7.4716043,6.2886105,-0.9843329,1.0909181000000001,0.7380125,1.9972849999999998
6.734152000000001,6.6817474,-1.2484038,1.1931245000000001,1.0201449,2.3070984
6.007999999999999,7.191693300000001,-1.542565,1.1728961000000002,1.2554326999999998,2.3949409
5.66289,7.618139299999999,-1.7086843,1.00894,1.3262234,2.3667187999999997
5.653169999999999,8.031666,-1.8713464,0.8300786,1.2330751,2.3140273
6.054132,9.09925,-2.117614,0.81356776,1.0685779,2.3416908
5.9663315,9.912024,-2.1266830000000003,0.94877845,0.91739744,2.4609318
5.5540595,10.059105,-2.2863955000000002,1.1537323999999998,0.79709184,2.5785843999999996
6.420491999999999,12.22194,-2.5783062,1.3075658000000001,0.82957244,2.6461808999999996
6.771472500000001,12.379622,-2.0452037,1.3677273,0.991923,2.6637564
5.489148,9.619031,-1.4184783,1.3490871000000002,1.1989888000000002,2.63714
4.5707517,9.083572,-1.6663069,1.2639151000000002,1.3549688999999998,2.5881662
5.4053793,11.391555,-2.207971,1.1468035,1.4177833,2.5173582999999997
6.132010500000001,13.446335000000001,-2.9512080000000003,1.0467438,1.3688268999999997,2.41304
6.178199299999999,14.775691,-3.8966589999999997,0.96528924,1.2282753999999998,2.2591891
5.490929,14.394975,-3.9035926,0.8497659,1.0425026,2.0403945
4.36597,12.742459,-2.9512174,0.6783571,0.82157886,1.7412276999999998
3.4896927000000004,10.835046,-2.209877,0.45319220000000005,0.5319938,1.3542359
3.1727004,9.083343,-1.7288818,0.23174481,0.19928169,0.9070825000000001
3.4306421,8.011305,-1.7313622,0.10983357,-0.11369075,0.5072974
3.5004091,7.3059735,-1.8735107,0.07311184,-0.35164893,0.1251052
3.5156937000000004,7.0473422999999995,-2.052779,0.09705776,-0.46237263,-0.26827455
3.4278839999999997,7.503495,-2.2176054,0.11889183,-0.49270645,-0.72235686
3.1700953999999997,7.5939,-2.2871137000000004,0.07204719,-0.41605159999999997,-1.2078377
2.7639527000000004,7.3242080000000005,-2.2589486,-0.08443903,-0.25476572,-1.6810663000000001
2.5852685,7.2833440000000005,-2.2082105,-0.33782592,-0.12753119999999998,-2.081916
2.6419442,7.602749,-2.3390392999999996,-0.4858124,-0.13817772,-2.367225
2.9007572999999995,8.303139999999999,-2.727235,-0.54169786,-0.31011009999999994,-2.5801551
3.3486165999999997,9.306769000000001,-3.0592344,-0.5949478,-0.32929125,-2.688767
3.5368583,9.699945,-3.0494852000000003,-0.72535884,-0.22015584,-2.6520278
3.401567,9.427093,-2.4187949,-0.86163414,-0.36761869999999996,-2.4955242
3.3821547,8.989183,-1.9997236,-0.84034115,-0.7860265000000001,-2.3603134
3.6937072,8.3812,-1.720684,-0.6785142,-1.0724175,-2.1894283
4.4298286,8.727603,-1.5710273000000001,-0.5576675999999999,-1.079329,-2.0473060000000003
5.3062309999999995,10.175596,-1.5317143999999998,-0.57897806,-1.0101267,-1.9658691000000001
6.067233,11.733801,-1.8086950000000002,-0.6886371,-0.8999440999999999,-1.8588629
5.8010454000000005,10.589257,-2.0518308000000003,-0.81798345,-0.95582956,-1.6853248
5.2512984000000005,9.340624,-1.3953598999999999,-1.336992,-1.9097567,-1.1301007
5.593630999999999,10.566244000000001,-0.43468168,-1.4860606,-2.6150966,-1.1657752000000001
6.3917427,12.732585,-0.18416199,-1.2859061999999999,-2.6837578,-1.5458555
5.927143,13.463257,-1.0306942,-1.3151754,-2.2823843999999998,-1.4904938
5.2436943,12.1766615,-1.1938256,-1.3087875,-1.7021496999999999,-1.4777178999999998
4.902329,10.365179,-0.2211955,-1.3402034,-1.107551,-1.386699
4.674679,8.732793,0.6234884,-1.2560959999999999,-0.75834554,-1.2930098
5.090561,7.688998,0.44573329999999994,-1.0676353,-0.79719657,-1.1700338
5.4614614999999995,7.1212177,-0.25458983,-0.7833736,-1.0399370000000001,-0.99489003
5.2576957,6.699762,-0.5903048000000001,-0.47464228,-1.2076283,-0.7457792
4.4909096,6.584121700000001,-1.5190253,-0.22657864,-1.1192621999999999,-0.46949357
2.9236171000000004,6.7523193,-2.7014258,-0.027488936000000002,-0.8403236999999999,-0.17193238
6.6108027,6.6071634,-1.1179582000000001,0.16573647,-0.6390872,0.11020009
6.154372,6.065576,-1.4466534,0.37388444,-0.6784967,0.33749429999999997
6.088024,7.412055499999999,-1.2210333,0.5207887999999999,-0.78335613,0.46738172
6.5284805,7.743978500000001,-2.082898,0.60330796,-0.63856363,0.5834286999999999
6.5528245,8.105369,-2.1503952,0.6895446999999999,-0.09506808,0.83255696
6.226418499999999,8.659713,-2.0437193,0.7816456999999999,0.47610837,1.0774267
5.9012666,8.907407000000001,-1.9648255000000001,0.84604836,0.89503974,1.1775038
5.573357,8.557136,-1.6316102,0.87001175,1.0813537,1.1354414
5.6033992999999995,8.625657,-1.5134226999999998,0.8705353000000001,1.1191574,1.1285299
6.13971,9.232645,-1.7169874,0.93547904,1.1633316999999999,1.2775809999999999
6.2625995,9.533826,-1.9569724999999998,1.0627135,1.6759698,1.4367551
5.8247766,9.217284,-1.902586,1.2080296,1.9847186,1.7146289000000001
5.788519,10.006728,-1.9152273000000002,1.3703976,1.9368093000000002,2.1761463
6.3743989999999995,10.5407505,-1.8645564,1.5370066999999998,1.5311774,2.3975937000000003
6.604587599999999,9.542253500000001,-1.6508595000000001,1.5396596000000002,1.2186936000000002,2.5828428
6.0152980000000005,8.516088499999999,-1.3471886,1.5194312,1.2628853,2.784062
5.922776,10.064304,-1.8202923999999998,1.4992204,1.3874495,2.884139
6.5598826,12.495971,-2.240379,1.4470351000000001,1.3964903,2.8388827
7.096462,14.039254000000001,-2.6647465,1.3496456000000001,1.3384756000000002,2.6653621
6.271621,13.314520000000002,-2.726498,1.2064238999999999,1.2383983,2.3560724
5.216736,11.558477,-2.0842962,1.0121338,1.0856123,1.9179598000000002
5.41714,10.354645,-0.9026235999999999,0.7651349000000001,0.8929103999999999,1.3957572
3.1309264,9.215197,-0.11789049,0.49364892,0.7209606,0.8703433
3.0251696,7.574986,-0.57428277,0.25516713,0.5586101,0.41147882
3.4010305,7.214448,-1.2001271,0.063006386,0.37337828,-0.002635447
3.233848,6.704416,-1.4096773,-0.11637855,0.18865263,-0.4450066
3.2740803,6.510754,-0.98677504,-0.28352875,0.04066617,-0.8527679
3.5581381000000003,6.524659,-0.9707530000000001,-0.4033107,-0.08016297,-1.160993
3.6526132000000007,6.7576149999999995,-1.2781303,-0.5017647,-0.1903456,-1.4143624
3.8279934,7.1533766000000005,-1.6811988000000002,-0.6151762,-0.26860616,-1.6049525
4.088712,7.790042999999999,-2.122996,-0.7093716,-0.35217252,-1.7050120999999998
4.3775296,8.516463,-2.5647933,-0.68809605,-0.46982518,-1.7241758000000003
4.569813,8.758229,-2.8001912,-0.5699198000000001,-0.55126226,-1.6667022
4.397957,8.539007000000002,-2.8739903,-0.4778188,-0.59651864,-1.5990881000000001
3.9801114,8.152726,-2.674218,-0.5001764,-0.6327168000000001,-1.5815127
4.0557013,8.584793,-2.4846833,-0.6188763,-0.7317118,-1.6288983999999997
4.5785849999999995,9.45795,-2.369168,-0.7290764,-0.8488234,-1.6810663000000001
4.6631293,9.641134,-2.2182853,-0.7397229000000001,-0.9212197,-1.6826544999999997
4.5071898,9.297863000000001,-1.9051716,-0.73174673,-1.0308962,-1.7082060000000001
4.6959586,9.800243,-1.5831037000000001,-0.7194944999999999,-1.1437491000000002,-1.8152122
4.8276687,10.532246,-1.5427948,-0.7264235,-0.9755343000000001,-1.8743091
4.5693529999999996,9.317161,-1.0579882,-0.7727271,-0.5517858,-1.8609921999999999
4.241845,7.8478866,-0.22218192,-0.78230894,-0.29201102,-1.852475
4.315309,7.689945699999999,0.48591759999999995,-0.71842986,-0.055676002,-1.8652508
5.078839299999999,9.213262,0.51573974,-0.5656611999999999,0.26050785,-2.0052438
5.844792,10.751996,-0.057412955999999994,-0.5368982,0.80456185,-2.0031145
6.2705197,11.302451,-0.67595017,-0.60877085,1.405025,-1.9828860000000001
6.176648,10.162889,-0.39681500000000003,-0.6348635,1.8532255000000002,-1.851934
5.668225,9.141656,-0.15761508,-0.5592733,2.0262398999999998,-1.5453146
5.746017,8.594294,-0.36698323,-0.42032763,1.8409908,-1.0710213
6.235296,8.241024000000001,-0.28438327,-0.21752039,1.3932964,-0.5227261
6.644446,8.596169999999999,-0.17989074,0.04914847,1.0009812,-0.0063704518
6.5671800000000005,8.882938000000001,-0.7074291,0.32224014,0.9168738000000001,0.41362557
6.4322047,8.882813,-0.8859600000000001,0.54208183,1.1526853000000001,0.75323176
7.007053,8.981762,0.053371545,0.7071201,1.5327656,1.0529396999999998
6.794821000000001,8.127089,-0.27042988,0.8284903,1.7819113999999998,1.3233784
7.237939999999999,7.268126,-0.45766599999999996,0.9035395,1.8159627,1.5048926999999999
7.2682313999999995,6.017557599999999,-1.1007007,0.9482548000000001,1.7057799999999999,1.61614
6.633710400000001,5.192468,-1.0525581,0.98764694,1.6035736,1.7540209
5.846047,5.810794400000001,-0.9519537,1.0584548999999999,1.68714,2.0547762
5.0055385,6.6357408,-0.9024225,1.1233986999999999,1.8633484,2.4737248
4.5849247,6.9864144,-0.7925382,1.0845301,1.9213631000000002,2.7420169999999997
5.118180799999999,7.4045380000000005,-0.59837806,0.95411915,1.8324735,2.7143362
5.9364514,8.084233,-0.4699435,0.6900857,1.599856,2.5258927000000004
6.477570500000001,8.783377999999999,-0.6925563,0.43509313,1.2586267,2.3454257999999997
6.320501,9.139156,-1.0123259,0.41275293,0.85034186,2.2863464
5.650345,9.5161,-1.4040843,0.5724331,0.52454126,2.3241327000000003
5.510533000000001,10.623849,-1.8938709999999999,0.7459886,0.36325538,2.3624601000000003
5.661253,11.616236,-2.056581,0.82049674,0.29352948,2.3353202
5.426113,11.633291999999999,-1.7479396,0.84391904,0.35793212,2.2810232999999998
4.452573999999999,10.299722000000001,-1.3740898000000001,0.8364665000000001,0.46706757,2.2075622000000004
3.7175437999999996,10.161921000000001,-1.7738161,0.805068,0.5367935,2.0899096
4.282547,11.938189,-2.550744,0.7529001000000001,0.59534925,1.9195653999999998
5.4590287,14.48562,-3.253768,0.6969972,0.61557764,1.7151525
6.0049257,15.998152,-4.1756983,0.62833595,0.5809852,1.5144745000000002
4.699579,14.206551000000001,-4.1246924,0.53944635,0.44416884,1.3031327
3.3125696000000002,11.858481,-2.9519547999999998,0.44415137,0.21526891,1.0481575
2.6975662999999996,9.390269,-1.7559650000000002,0.35472070000000006,-0.02904228,0.759096
2.826748,7.9206038,-1.7148038,0.28232446,-0.256895,0.43544218
3.1089284,7.1326046000000005,-1.9040032999999998,0.19928169,-0.45383796,0.04897394
3.1360881000000003,6.5088573,-1.8179843,0.08588765599999999,-0.58266073,-0.42210788
3.138827,6.569881,-1.8707908,-0.056217055999999994,-0.64175755,-0.977332
3.3965197,7.488842999999999,-1.853773,-0.21219712,-0.6124708999999999,-1.5666075000000002
3.5958705,7.8200183,-1.7088279999999998,-0.34154347,-0.54274505,-2.1095796
3.4166790000000002,7.430261,-1.5263035,-0.51242864,-0.4895125,-2.5338515999999998
3.0827357999999996,7.027067999999999,-1.4441058999999998,-0.80307835,-0.37453020000000004,-2.846859
2.9400032000000005,6.790741400000001,-1.4292235,-1.2475613,-0.49909434,-3.0853407
3.0671353,6.8751993,-1.3707668,-1.5190473,-0.96221745,-3.2354564999999997
3.2112279999999997,6.894841,-1.2630659,-1.5089244,-1.5685273000000002,-3.2844129
3.3899407,6.939459299999999,-1.1985278,-1.4903017,-2.0146337,-3.2072344
3.8794017,7.222387299999999,-1.1104882,-1.5850556999999998,-2.1993417999999996,-3.0720238999999996
4.5331144,7.655431299999999,-1.2116001,-1.6915206999999999,-2.3334877,-2.876128
5.1806116,8.433000999999999,-1.563634,-1.6979085999999999,-2.4356942000000004,-2.529593
5.6639247,9.294014,-1.7097186000000002,-1.5749327,-2.5379007000000002,-2.1058445
5.737417,9.905952000000001,-1.5565472,-1.4168408000000001,-2.6241374,-1.7486628
5.8968515,10.957112,-1.2341918,-1.4109764999999999,-2.8556902,-1.2972508999999999
6.148243,12.829186,-2.3648872000000005,-1.3849013000000001,-2.652883,-0.8405157
5.496023999999999,11.905819000000001,-3.2286959,-1.0809348,-2.2238287999999997,-0.8719315999999999
4.8017244,9.493805,-2.0506625,-0.9260368,-1.6723396000000001,-0.6004456
4.280373,9.636413000000001,-0.81841475,-0.8387353999999999,-1.1799298999999999,-0.5142089
4.794322,12.056051,-1.026356,-0.8477937,-0.88610363,-0.5062153
5.513099700000001,12.933563000000001,-1.9319005,-0.9047438,-0.81955427,-0.57382935
5.5780683,12.814782000000001,-2.2272015,-1.0426248,-1.0537775,-0.66804224
4.981232599999999,13.3477125,-2.028971,-1.2214861000000001,-1.4790968,-0.8075114999999999
4.877966000000001,13.105352,-1.6123512,-1.3699961999999999,-1.9422199,-0.9405928
5.3624277000000005,11.78021,-1.8194784,-1.4162998,-2.240863,-1.0220299000000002
4.2052526,10.045975,-3.0008828999999997,-1.3593496999999999,-2.412272,-1.0087305
6.299221,8.298036,-0.84241426,-1.2113631999999999,-2.5166077999999996,-0.94272214
4.979125499999999,6.444281,-1.5329211999999999,-0.9925861999999999,-2.5906096,-0.906524
4.362868,6.133829599999999,-1.4763893,-0.72003555,-2.4915798,-0.8825780999999999
4.7051525000000005,6.2363305,-2.1956651000000003,-0.377218,-2.1721845,-0.7420441999999999
4.640442,6.2968845,-2.3947284,0.010314896,-1.9038924,-0.44127159999999993
4.3581843000000005,6.4077554,-2.6391953999999997,0.40369466,-1.7931686999999998,-0.101124376
4.237766000000001,6.7331080000000005,-3.3709114000000002,0.7342774999999999,-1.7218372,0.15652113
4.4285455,7.4137892999999995,-3.7596724000000004,0.98871154,-1.3811488,0.37742746
4.750326,7.701821300000001,-3.6700334999999997,1.2080296,-0.67636746,0.7032106
5.008651,7.7116375,-3.3322403,1.3810441,0.08538151,1.0933964
4.9649997,7.7290964,-3.0259645,1.5077375,0.5309465999999999,1.4303671
5.0766654,8.278163000000001,-3.0553557999999996,1.6269784999999999,0.70500827,1.7093056
5.780321,9.299816,-3.0411246,1.7196031000000003,0.6837153,1.9674747
6.552336,9.87613,-2.6586652,1.7776352999999998,0.59534925,2.217144
6.291062,9.559521,-2.3385222000000003,1.8084927,0.49368384,2.437527
5.782657599999999,9.48193,-2.0634954,1.8649191999999999,0.5272116,2.6185174
5.817891,9.44027,-1.6730009999999997,1.9623435000000002,0.75398225,2.7643747000000003
6.594685000000001,8.76501,-1.2195393,2.0533624,1.176125,2.9480180000000002
7.1498427,7.992908,-0.63984567,2.0842547,1.599315,3.1279442000000004
7.298762299999999,8.656533,-0.31982702,2.0485802,1.870801,3.27806
7.3148029999999995,10.793809,-0.6283439000000001,1.9607552,1.9650313000000001,3.34248
7.4194202,12.763499000000001,-0.78413934,1.856402,1.9091284,3.2583724999999997
7.149958,13.534748,-0.71299326,1.7212087999999999,1.7904285,3.0060502999999996
6.6030455,13.037262,-0.6987813,1.549259,1.6025089,2.6089356
6.1435122,12.1672945,-0.7439838000000001,1.3155594,1.3869083999999998,2.1112027
5.812930000000001,11.322257,-0.6974884,1.0217332000000001,1.1676078,1.5804828000000002
5.6882209999999995,10.487466,-0.43928809999999996,0.6970147,0.9190030999999999,1.0598687
5.636181,9.424766,0.08910261,0.40156534,0.65764004,0.52541393
5.369619999999999,8.589621000000001,0.18265843,0.12955579,0.43032837,-0.073426
4.847751000000001,7.978839999999999,-0.10663774,-0.15416493,0.26424286,-0.6962642
4.394107,7.617038000000001,-0.44861594,-0.43099160000000003,0.10719812,-1.2754343000000001
4.083464,7.5183682,-0.7875583,-0.65455085,-0.05087635,-1.7806023000000002
4.039191000000001,7.744677,-1.0949067,-0.86002845,-0.2579422,-2.2208443
4.1435585,8.01483,-1.4904671999999999,-0.98300433,-0.49005353,-2.5514095
4.2822213,8.361701,-1.8301374,-0.98513365,-0.63856363,-2.7180362000000002
4.4031954,8.460811999999999,-2.1844215,-0.88184506,-0.6864729,-2.741441
4.198233,8.231504,-2.585058,-0.77752674,-0.67209136,-2.657351
3.843862,7.7951665,-2.737607,-0.72162384,-0.5853311,-2.4359037999999997
3.8750730000000004,7.516394999999999,-2.5569787,-0.7333350000000001,-0.47460738,-2.1335254
4.2651553,7.8032875,-2.5470667000000002,-0.81585413,-0.6252641999999999,-1.8130828999999997
4.6902504,8.459069,-2.8160121,-0.8775864,-1.174083,-1.6549735
4.683097,8.806707000000001,-2.8305976000000004,-0.8722631999999999,-1.7612292,-1.6059996
4.7281656,9.314785,-2.7390819,-0.86693996,-2.130663,-1.5767129999999998
4.906121700000001,10.573044,-2.7582543,-0.9473298000000001,-2.58581,-1.3808347
4.8323035,10.634584,-2.1421785,-1.4663558,-4.065151,-0.48172832
4.619085299999999,10.113759,-1.32181,-1.7378417000000002,-4.693278,0.06600835
4.545057,10.588673,-0.71516716,-1.650523,-4.4776945,-0.42317253
4.8296123,12.078144,-0.48337018,-1.4482567,-2.964302,-0.8910953000000001
4.9604697,12.932491,-0.23047544,-1.3007939,-1.2491322,-1.2637056
4.7253685,12.695159,-0.63100624,-1.2119043,0.47717303,-1.4101039
4.182402,11.411896,-1.2111979,-1.2102985000000002,1.6850281000000003,-1.6698787
4.3600616,9.809130999999999,-0.8983523999999999,-1.2321151000000001,2.3121076,-1.9147483
4.642807,8.232635,-0.38027585,-1.1544131000000002,2.1742265,-2.086157
4.818934,6.959025,-0.31484709999999994,-0.93401295,1.5844098,-2.0382477999999997
3.5730011,6.049343,-1.6163926000000002,-0.6353871,0.82637846,-1.7284343999999998
1.7651875,5.4915614,-2.988481,-0.37028906,0.08325221,-1.2658525
7.829796000000001,5.23203,-0.9319095,-0.14777702,-0.44905576,-0.7074343000000001
7.2915220000000005,4.30872,-1.3629233,0.08323475,-0.7822915,-0.1378461
8.716694,4.8883185,-0.58716357,0.36697292,-1.0016095999999999,0.34068826
6.5375309999999995,5.1609607,-1.2064476999999998,0.59320253,-1.1064688999999999,0.6952345
7.2565284,6.4016547,-1.6951904999999998,0.7752578,-0.9914866,0.91453505
7.3705406,7.665161,-2.7422134999999996,0.9919055,-0.5991715,1.1604694
6.873015400000001,8.814407000000001,-3.3806032999999998,1.2096528,0.036407568,1.419197
6.1618322999999995,9.160072,-3.2765033,1.3326111999999999,0.7534586,1.5714246
5.196806,8.990601,-2.472291,1.326747,1.3086653,1.588459
4.3097544,9.132547,-2.1556337,1.2799023,1.5636579,1.5549313
4.298971,10.057927000000001,-2.3144171,1.320359,1.6530886000000002,1.5985819
4.7497324999999995,10.7600975,-2.6642772999999997,1.3799795,2.0060116999999997,1.6528791
5.0930222999999994,10.476165,-2.6056097,1.4220419,2.435066,1.7002648
5.468950700000001,11.143554,-2.3682103,1.5418065,2.5378133999999997,2.0031493
6.3662019999999995,11.849393,-2.3389437,1.6711526999999997,2.241823,2.1724287999999996
6.643852000000001,9.888283,-1.8570098999999998,1.6498598000000002,2.0038824,2.3198743
5.9792027,8.011525,-1.1580371,1.5833278,2.0895956,2.5184402
6.000856,9.053405,-1.0803405000000001,1.522119,2.1577332,2.622776
6.8436145999999995,11.525141,-1.5607321,1.4278888,2.080537,2.6392694
7.488383,13.322114000000001,-2.4486172,1.2926781,1.9022168999999998,2.5243046000000002
6.676366000000001,13.002507000000001,-2.6518946,1.101041,1.6392480999999999,2.273047
5.4436483,11.581069,-2.049992,0.8423308,1.316659,1.9052014
5.675321,10.721752,-1.2769235,0.5181359,0.9520073,1.4580481
4.3032517,9.692332,-0.36100733,0.2083225,0.59534925,0.98108447
3.3977074999999997,7.703669500000001,-0.7873284,-0.04930555,0.25305527,0.51848495
3.5303366,7.517056,-1.71738,-0.26275933,-0.03970624,0.06600835
3.3299324999999995,6.9468336,-1.8564353,-0.42832124,-0.2526364,-0.36993998
3.1307156000000003,6.669757400000001,-1.4325563000000001,-0.528381,-0.40327579999999996,-0.7633371999999999
3.2520537,6.587530999999999,-1.3375831,-0.61568236,-0.51187015,-1.1231716999999999
3.1318552000000004,6.697042,-1.6163063999999998,-0.7482576,-0.60343015,-1.4431254999999998
3.3389442000000003,7.1195226,-1.9920811999999999,-0.8264832000000001,-0.6971194000000001,-1.6145169
3.6294854,7.8168679999999995,-2.4606934,-0.6753028,-0.81156063,-1.6400683999999996
3.8662237999999998,8.588854,-2.9496756,-0.4256509,-0.8099724,-1.5575668
4.0338087,8.77337,-3.362024,-0.30534536,-0.7061602,-1.4590778
3.879507,8.438182000000001,-3.3382258,-0.36336009999999996,-0.676891,-1.3946751
3.808811,8.700663,-3.1476474,-0.5672495,-0.8014551999999999,-1.4021277
4.1232557,9.532371000000001,-2.9997816000000004,-0.7716624,-1.0889109,-1.4351319
4.3512699999999995,9.687706,-2.7229927000000003,-0.9010087999999999,-1.4498276,-1.4415023
4.4832673,9.449608,-2.2041214,-0.9670171000000001,-1.7931686999999998,-1.4489549
4.905049,10.481815,-2.1130459999999998,-1.0032152,-2.0529435,-1.4298086
5.245734,11.976516,-2.3791277,-1.0394132999999999,-2.1327922000000004,-1.3467483999999998
4.5923758,10.749295,-1.8055631999999997,-1.0543185,-2.102982,-1.2126024
3.9905690000000003,9.182022,-0.29121155,-1.2837595,-2.4410174,-0.8410566999999999
4.1283507,10.3313055,0.30082667,-1.4636855,-3.0020884999999997,-0.50675637
4.677226,12.330838,-0.20328689,-1.5397993,-3.1905317,-0.65420175
5.014914,13.00197,-1.1144817,-1.4620798000000002,-2.5245838,-1.019377
5.1565742,12.208657,-1.6986956999999998,-1.4194937,-1.4822906,-1.2754169
4.7974057,10.4924555,-1.388953,-1.3811837,-0.37720054,-1.4005393999999998
4.3332176,8.582714999999999,-0.8569805,-1.3316687,0.36538467,-1.4793062
4.3191013,6.852473700000001,-0.51468635,-1.1480078000000002,0.664028,-1.4718536
4.248683,5.5784616,-0.22624248,-0.82808894,0.5080479,-1.3265375
4.2401404000000005,4.8899655,-0.25095063,-0.46504298,0.10348057,-1.0970966
3.9315858,4.5852027,-0.6584438,-0.22123794,-0.17383479,-0.8437096
3.2060564,4.585011,-1.3954556999999999,-0.08443903,-0.29894,-0.57382935
4.9509697,4.6500473,-1.0975596,-0.00031415926,-0.2446428,-0.29328513
6.576757400000001,5.034058,-1.2953397,0.0795172,-0.24144885,-0.05586799
7.554664,5.673339,-0.87918913,0.3201283,-0.14295992,0.1900489
6.9841833,7.124321000000001,-1.8578047999999998,0.66294587,0.21474531,0.5813168000000001
7.9178643,9.085105,-2.226081,0.84604836,0.6028018,0.9608561
7.570341,9.655739,-2.5803363,0.8066736999999999,0.8104087,1.140241
6.818944999999999,9.485377,-2.2972653,0.69647366,0.82105523,1.1450408
5.7302155,8.977088,-1.8917066999999999,0.77419317,0.74014175,1.1908207
5.5776567,9.130872,-1.6723497999999999,1.0462027,0.77101666,1.369141
5.999027,9.934788000000001,-2.025849,1.3224883,1.0882826,1.5639721000000002
6.359545,10.518388999999999,-2.6374047000000003,1.5359596000000002,1.5088197,1.7151525
6.4740839999999995,12.020291,-3.3705665999999996,1.704698,1.7978811000000001,1.9642982
6.991538,13.312479000000002,-3.162252,1.8287209999999998,1.9575613,2.1559180000000002
6.3418856,9.618236999999999,-1.4884464,1.8393675999999999,2.1678386,2.3624601000000003
5.079117299999999,7.643345399999999,-1.0976745,1.78987,2.3131547,2.5104467999999995
5.422053,10.425263000000001,-2.1653736,1.6716938000000001,2.2695215,2.5604854
6.6421665999999995,13.21676,-3.4915410000000002,1.5141255,2.0917246,2.5253517999999997
6.827928,13.703079,-3.8237317,1.3485636,1.8580252,2.4045227000000002
5.6872153,12.240711,-2.6901824,1.1766136999999999,1.59558,2.1931808
4.7579875,10.632448,-1.613127,0.9700889000000001,1.3187883,1.8833673
4.955614,9.666322000000001,-1.4135556999999999,0.71350807,1.0637957,1.4596363
4.6709538,8.472515,-0.93693733,0.41380012,0.84395397,0.96937335
4.0883769999999995,7.0302477,-0.8382196,0.11358603,0.61877155,0.46153486
3.748343,6.53912,-1.2002612,-0.16481145,0.37442547,-0.014887659
3.5654738,6.2521705999999995,-1.2536806999999999,-0.36177185,0.08644616,-0.42264894
3.5175037000000002,6.212283,-1.3345759,-0.4426853,-0.13604842,-0.7409621
3.450629,6.408578400000001,-1.6522099,-0.43629742,-0.26007152,-0.9927607
3.4051867,6.602069,-1.8313823,-0.48368308,-0.31119220000000003,-1.2216606
3.3574943999999998,6.8294125,-2.0378487,-0.59014815,-0.28457594,-1.355283
3.443628,7.2046795,-2.2494195,-0.63432246,-0.33194417,-1.3595243000000001
3.739657,7.8927059999999996,-2.5816007,-0.50284684,-0.5667084,-1.3116324
4.141058999999999,8.454089,-2.8992345,-0.33463198,-0.8791747,-1.3446366
4.2863684,8.418234,-3.1551652000000003,-0.30373964,-1.085717,-1.4303322
4.2783427000000005,8.657242,-3.280334,-0.41606903,-1.1112686,-1.4846294
4.2062488,9.39322,-3.2490177000000005,-0.6247406,-1.0686826,-1.4404551
4.141854,9.681548,-2.7864678,-0.76262164,-1.103816,-1.3755114
4.046651,9.122981,-2.0465732,-0.78445566,-1.2305095,-1.3483715
4.2159595,9.138822,-1.5705676000000002,-0.76742125,-1.4088472,-1.3574123
4.9588895,11.178672,-1.6626198,-0.7903025,-1.5004072,-1.3398544
4.911293,11.870461,-1.8858455000000003,-0.84512335,-1.5754563999999998,-1.2940569
4.0166755,10.978631,-1.6426043999999997,-1.0963983999999998,-2.0093102,-1.0529222
3.8635902,11.155572,-0.66507095,-1.368408,-2.6816285,-0.7175571999999999
4.7076135,12.55687,-0.37982574,-1.4770024,-3.1532687999999998,-0.8293455
5.531018,13.109404000000001,-0.527299,-1.5185236999999998,-2.7684064,-1.0976375
5.531286,12.359098,-1.1180443000000002,-1.3593671,-1.6963028999999998,-1.4479077
4.88941,10.545587,-1.4614495,-1.2587489,-0.40701079999999995,-1.5330796999999998
4.456519,8.393448,-0.8795052,-1.1059803,0.67306876,-1.5932412
4.275958,6.527426999999999,-0.20850624,-0.9335068000000001,1.2921546,-1.5788597
4.223142,5.2915306,-0.019862298,-0.6694734,1.3602922,-1.5059398000000002
4.1181226,4.7209444000000005,-0.39456445,-0.3703065,1.1026467,-1.3201495
3.9512086,4.7128997,-0.99596876,-0.13875368,0.75502944,-1.0140712
3.2544575,5.0299879999999995,-2.0022135,-0.028553586000000002,0.3414213,-0.6536781999999999
4.6093554,5.3317723,-1.4405146,-0.016842427,-0.12541936,-0.30075514
6.2673016,5.5533605,-1.722111,0.029984757,-0.5518033,0.013840461
7.7014190000000005,6.4377213,-1.1616379,0.08002335,-0.8089251999999999,0.23794073
7.2876625,6.770419599999999,-1.125993,0.21629865,-0.77857393,0.45406485
7.3274064,7.973917500000001,-1.1240778,0.4553215,-0.3782652,0.7755894
7.148492999999999,8.717786,-1.5809968,0.7012384,0.26316074,1.1258595
6.5041842,9.048177,-1.7558692999999999,0.84018403,0.9237853000000001,1.3414426000000002
5.7894096,9.104267,-1.3912706,0.864671,1.3443223999999998,1.369141
5.4005527,9.258579,-1.1354741000000002,0.87744683,1.4529166999999998,1.2711756
5.1675396,9.925968,-1.4330158000000002,0.9455844999999999,1.6275195,1.1955855
5.287585,10.716705000000001,-2.0756578,1.0802541,2.100748,1.1412883
5.237718,10.769311,-2.5416462,1.2261113000000001,2.4526237999999996,1.4250264
5.822373000000001,12.083411,-2.4804215,1.3485636,2.4659407000000004,1.6746956999999998
6.6800814,12.563161000000001,-2.2794235,1.3634511999999999,2.241823,1.8546043999999997
6.295553,9.759628,-1.3951588,1.3783563,2.22053,2.063817
5.522312599999999,7.604559,-0.8350593000000001,1.4055136000000001,2.3030317000000005,2.2623656000000003
5.6384025,8.736739,-1.1195956,1.4054962,2.2322412,2.3800182
6.438085,11.828391,-2.0371306000000002,1.3453522,2.067744,2.4130225
6.927028699999999,13.6215515,-3.0108333,1.2389045,1.8686717000000002,2.3427556000000003
6.5946940000000005,12.9032345,-2.9353105999999998,1.0935709999999998,1.6211316999999998,2.1819932
5.930562,11.172350999999999,-2.1530192,0.89287555,1.3224883,1.9227419999999997
4.9739633,10.161508999999999,-1.7027657999999999,0.6352300000000001,0.98766434,1.5586314
3.6856818,8.274237,-1.1601822,0.3003886,0.5990668,1.1029608
3.9483832999999997,7.6192307,-1.4338683,-0.017383479,0.24399702,0.65474284
3.4294546,7.059859299999999,-2.0086298,-0.24308945,-0.029600783999999998,0.2895676
3.1284652000000004,6.435193,-1.4980712,-0.37245327,-0.27499408,-0.009581857
3.088731,6.202275299999999,-1.248873,-0.45547858,-0.53796285,-0.3076841
2.9418802000000004,6.1892510000000005,-1.4667071000000003,-0.5300216,-0.754628,-0.6292085999999999
3.0054990000000004,6.4717765,-1.8014932000000001,-0.6269048,-0.85737556,-0.95179784
3.1541502,6.7151130000000006,-2.0350142,-0.79086107,-0.8978323,-1.214243
3.2229307,7.1512027,-2.3506176,-0.9367181999999998,-1.1118096000000002,-1.4260911
3.4251449999999997,7.841862700000001,-2.7255017999999995,-0.85365796,-1.3774488,-1.5772715
3.7981138,8.601524000000001,-3.1917963,-0.6684262,-1.3716019,-1.5714246
4.02924,8.901498,-3.4005134,-0.56887263,-1.1874173000000001,-1.4644358999999998
3.98874,9.167666,-3.3363582999999997,-0.62475806,-1.1096803,-1.3824404
3.7536294000000003,9.407747,-2.7909403,-0.75783944,-1.2390442,-1.3989512
3.6435727999999994,9.526883,-2.4902759999999997,-0.77010906,-1.3625436000000002,-1.4537895
3.8773712999999996,9.568743,-2.2307349999999997,-0.71740013,-1.3694726000000002,-1.4713475
4.3579545,9.922271,-2.0077872,-0.7147298000000001,-1.3354038000000001,-1.4580481
4.900739,11.383663,-1.8892167000000002,-0.74454,-1.2869534,-1.4287615
4.7009387,12.052947,-2.4883319999999998,-0.76691514,-1.16026,-1.3771346000000002
4.3470945,10.3847065,-2.0319111,-0.76691514,-1.1139563,-1.3026091
4.2529449999999995,8.939155,-0.34474587,-0.9106254999999999,-1.5057303999999998,-1.0374934999999998
4.3883996,9.687736,0.4111898,-1.0069852,-1.7490119,-0.90814716
4.496588,11.673955,-0.17629944,-0.88400924,-1.4988190000000001,-1.1791096
4.93105,12.992941,-1.2209663,-0.9149016,-1.1080921000000001,-1.2035965
5.3614416,12.355,-1.3106052,-0.8675159,-0.71842986,-1.2877039
5.116514,10.099327,-0.31566113,-0.8888089,-0.37934732,-1.3100616000000003
4.804138,8.086532,0.1249486,-0.84781116,-0.1829105,-1.2951565
4.642501,6.796104400000001,-0.19265662,-0.7770206000000001,-0.27340582,-1.2131783999999999
4.553609,6.001306,-0.39312792,-0.635422,-0.45387286,-1.0832909
4.4799824,5.437844999999999,-0.5123879,-0.44376743,-0.57309633,-0.91612333
4.1958575,5.191501000000001,-0.9107255999999999,-0.24630086,-0.54595643,-0.6851115
3.5471535000000003,5.5317745,-1.452792,-0.081279986,-0.39371136,-0.40776128
5.6636086,6.119675,-0.9107639000000001,0.07201228,-0.26595327,-0.12669346
5.9618397000000005,5.9577503,-1.2487774,0.22373375,-0.27872908,0.09686577
5.427368,6.8585066999999995,-1.4772798999999999,0.32806954,-0.32983232,0.23207644
6.1306405,7.5868134000000005,-1.8930857,0.47764426,-0.16800539,0.41465533
6.4473650000000005,8.402221,-1.7261906999999999,0.70017374,0.29564133,0.7228805
6.040982700000001,8.879931,-1.8745642,0.88062334,0.86734134,1.0263059
5.8110623,9.039213,-1.9093183,0.94663167,1.3560162,1.1737514
5.7631307000000005,8.926003999999999,-1.6191508,0.9019163,1.5407418,1.1886564
5.8611684,8.791192,-1.3117448,0.8864702,1.475257,1.199303
6.156776,9.410007,-1.481034,0.99506456,1.4630222,1.3137442
6.182154,9.826005,-1.7393683999999998,1.0994004,2.2311592,1.3196086
6.1074553,10.096665,-1.9291233,1.2527275,2.6761832,1.4910173
6.428441,11.648356,-2.3830159,1.4252008999999999,2.6692717,1.9472289
6.9254679999999995,12.191122,-2.4445086,1.5566766,2.164627,2.120767
6.287844000000001,9.473127999999999,-1.4860619,1.5050323,1.8611842,2.2714064
5.5160584,7.892371000000001,-1.1244416000000002,1.4092138,1.9335978999999999,2.4470737000000002
5.870592,9.486018,-1.6246764999999999,1.3197831,2.0240932000000003,2.5476919999999996
6.652462,12.44099,-2.561183,1.177661,1.9096346000000002,2.5338515999999998
6.8108144,14.050459,-3.4157789,0.99293524,1.6253728,2.389059
5.898048999999999,12.81573,-3.1414416000000003,0.76564103,1.2213465000000001,2.1409955000000003
4.9418239999999996,10.940372,-2.2271535,0.5255535,0.7826929,1.7965721000000001
6.2946434,10.253436,-0.9635896,0.25672048,0.37866664,1.3797526000000002
2.9254942,8.513771,0.13407529999999998,-0.015271631,0.022008602000000002,0.89694214
3.01113,6.925812700000001,-1.032964,-0.21540853,-0.23774876,0.42423720000000004
3.3818386,7.1254990000000005,-1.8624015999999999,-0.3085742,-0.36231290000000005,0.0047647487
3.2426302000000002,6.747215,-2.1644351000000004,-0.3325376,-0.39425242,-0.36891025
3.2390964,6.7034583,-1.5184792999999999,-0.3474427,-0.37774159999999996,-0.75483745
3.2335227000000004,6.758611,-1.3076364,-0.36980036,-0.29682815,-1.1072369
3.0481732000000004,6.9629993,-1.675989,-0.43420299999999995,-0.18397516,-1.3680763
3.1160727,7.1976886,-2.11816,-0.5704783,-0.13606587,-1.5192567
3.185677,7.505295299999999,-2.4423635,-0.64554495,-0.377218,-1.6065756000000002
3.4340512999999997,8.128928,-2.7664616,-0.5385388000000001,-0.68010247,-1.6384976000000002
3.6697559999999996,8.735292999999999,-3.0233022999999997,-0.45710173,-0.7748564,-1.5570606000000002
3.9349854,8.87815,-3.0448596,-0.479983,-0.8861210999999999,-1.4383433
4.0243273,8.786941,-2.6358533,-0.6380924,-1.1938052,-1.3627706
4.072891,9.0454,-2.2389522,-0.7349756,-1.5264999,-1.3489126
4.301317,9.502414,-2.0565712,-0.7163354999999999,-1.5999608,-1.2696048
4.661568,9.5915365,-1.8395705000000002,-0.72965235,-1.6297709999999999,-1.1759156000000002
4.901984,9.839757,-1.5615557,-0.8025722,-1.6963203999999998,-1.1056486
5.0048394,11.130586,-1.7228197,-0.87283915,-1.8687938000000002,-1.0194119000000001
4.4856133,11.236544,-2.2013247000000002,-1.0831164,-2.5778513,-0.6254911
3.9810307000000003,9.510239,-1.489069,-1.4626732,-3.8293571,-0.011187561
4.0366626000000005,9.399386,-0.30791348,-1.6042718,-4.3978806,0.10323623
4.2238984,11.336333999999999,-0.34998440000000003,-1.4754316,-4.1987734,-0.27467993
4.45695,13.188384,-1.2491987,-1.4088821000000002,-3.1969369999999997,-0.43224823
4.7603054,13.115235,-1.7886793999999997,-1.2641071000000002,-1.3402034,-0.78040653
4.920324,11.073661999999999,-0.7699178000000001,-1.1044095,0.46703264,-1.0002482
4.5488877,8.990687,0.04830541,-0.9596169,1.5955626,-1.1775038
4.402171,7.444435,-0.09749189,-0.8148244,2.0730498,-1.3318957
4.349422,6.4012046,-0.3682282,-0.6274459,2.0251580000000002,-1.4112034
3.96611,5.632618,-0.75110894,-0.43580872,1.5865042999999999,-1.3430657
3.023331,5.2081547,-1.6728001000000001,-0.2851519,0.9482548000000001,-1.1178833000000001
3.519505,4.980907,-2.0244124,-0.18135716,0.31000537,-0.7947706
6.923590700000001,5.0342207000000005,-1.6243701000000001,-0.12334242,-0.25265387,-0.46685812
7.052198,4.9344306,-1.6455061000000002,-0.058922317,-0.64285713,-0.1900489
7.323135400000001,5.9389997,-1.2734758999999998,0.027279496,-0.91434306,0.0047647487
8.554703,6.6515803,-0.7613753000000001,0.14014994,-0.9537177,0.12932889
7.329532,6.849696000000001,-1.5832376,0.39140755,-0.5235988,0.3758043
6.955194500000001,7.802071000000001,-1.8957577,0.7390073,0.24930283,0.7611904
6.4184427,8.467478,-2.2610555,1.0041053,1.02011,1.0789975
5.8482975999999995,8.949459,-2.1232164,1.118564,1.5487178999999998,1.1854625
5.1262927000000005,8.96187,-2.1341147,1.0844951999999999,1.6812756000000002,1.1221246
4.629658,9.202430999999999,-2.1913169999999997,1.0291334,1.6402778999999998,1.0630277
4.5862465,9.789259,-2.2964703999999996,0.92373294,2.2764156000000004,0.9384635
4.958028,10.104364,-2.4925652,1.0014524,2.7342153,0.96987945
5.488018,10.8046875,-2.6348286,1.1792492,2.5420372,1.4063689
6.495344599999999,12.475878999999999,-2.7485722999999997,1.3203241000000001,1.838844,1.5820537000000001
7.011524700000001,11.385703,-2.0863073,1.3102011999999998,1.4944208,1.7444042000000002
6.107752,8.465025,-0.9755031,1.2676152,1.6003622,1.9961853999999999
5.405054,7.854035400000001,-0.6653104000000001,1.2191648000000002,1.7653831000000002,2.2107213
5.945588,10.211768,-1.3977733,1.1414628,1.6653058999999997,2.314516
6.6435747,12.582382,-2.560685,1.0211397,1.4001903999999998,2.2884407
6.5723324000000005,12.980442,-3.3225870000000004,0.8673065000000001,1.0488731000000002,2.1473657999999998
5.6933737,11.471598,-3.01475,0.69642127,0.66025805,1.9158130000000002
6.5583506,10.65506,-1.6927963,0.51277775,0.32862803,1.5921591999999998
3.1750658,8.804495,-0.19687042,0.30037117,0.06831218,1.1843979
2.5763335,6.9571,-1.1772864,0.09382889999999999,-0.10946705,0.74363244
3.2661796,7.044747,-1.8805783999999999,-0.07382743,-0.16055284,0.33800048
3.2263017000000005,6.650728699999999,-2.1988828,-0.21542598,-0.14831808,-0.055379298
3.1983182,6.5300317,-1.5734023000000001,-0.33147293,-0.10733775,-0.45888197
3.1462014,6.5574694000000004,-1.3672041000000001,-0.41770965,-0.07325147,-0.85384995
3.0002985,6.626633,-1.6654737000000002,-0.47200683,-0.09295624,-1.2328831
3.1200182,6.881634700000001,-2.0269310000000003,-0.575278,-0.12383111,-1.5639895000000001
3.1703062,7.146270299999999,-2.3071485000000003,-0.78714347,-0.20313887,-1.7423098000000001
3.2781407999999996,7.489321,-2.5359576,-0.8978671999999999,-0.52466345,-1.7950012999999998
3.6105902000000003,7.905089,-2.6476328,-0.6785491,-0.9164724,-1.7598852999999999
3.9887687999999994,8.028017,-2.8160217,-0.42835617,-0.9196489,-1.5661014
4.0854945,7.896891,-2.6798682,-0.32721433,-0.7413286,-1.3153848999999997
4.145321,8.094814999999999,-2.4504273,-0.462425,-0.66306806,-1.129071
4.517955000000001,9.187510000000001,-2.4626183999999998,-0.7046243000000001,-0.91593134,-1.0635861999999998
4.8765864,10.093485000000001,-2.4146004,-0.7477514000000001,-1.3391387,-1.0769031
4.9240685,10.179580999999999,-2.2964703999999996,-0.6806784,-1.6622516,-1.1157715
5.138780000000001,10.713402,-2.0025678,-0.6769608,-1.7442296999999998,-1.1322823999999998
5.4594026,12.935747000000001,-2.1548293,-0.76372117,-1.6776803,-1.0465518
4.644712999999999,13.080262,-2.871165,-1.0394658,-1.9310671999999998,-0.69788736
3.7406144,9.834577000000001,-1.4629530000000002,-1.2018163,-2.4735155,-0.3992615
3.6311709999999997,8.511003500000001,0.45325109999999996,-1.1656182,-2.4149597000000003,-0.66221285
3.8181483999999997,10.246829,0.8300601999999999,-0.93512994,-1.7484883000000002,-0.93476343
4.5188065,12.671025,-0.08757032,-0.8265355999999999,-0.7535808,-0.91720545
4.667448,13.407741,-1.7346278000000002,-0.7610508,0.016685348,-0.9853431
4.611941000000001,11.719866,-1.8322538000000002,-0.7285877,0.47767916,-1.0822263
4.2120904999999995,9.261403999999999,-0.45648807,-0.66896725,0.70071477,-1.1727216
4.2997565,7.4557839999999995,0.11525687,-0.5774073000000001,0.6139545,-1.1626161
4.4813423,6.583873,-0.19489759,-0.44326127,0.35363862,-1.0178236999999999
4.1600018,5.8409038,-0.9495787,-0.2952748,0.029984757,-0.80595815
3.1576552,5.3614416,-1.5710177,-0.1691224,-0.21167353,-0.5818404
4.4563180000000004,4.943528,-1.0283,-0.09831439999999998,-0.32876766,-0.3784921
6.612823,4.8487849999999995,-0.47588109999999995,-0.0376293,-0.34208453,-0.20123646
5.443198000000001,4.617716000000001,-0.6543449,0.084247045,-0.29682815,0.002635447
5.6740856,5.912414,-1.1219803,0.23862141,-0.31707397,0.17723818
5.9519567,7.019914,-1.9916215,0.3466922,-0.31972685,0.26827455
6.3803945,8.092630999999999,-1.8777723000000002,0.45635125,-0.14086552,0.3475823
6.2099943,8.595184,-1.8719784,0.655982,0.27007225,0.55305994
5.4564238,8.1846075,-1.9394948,0.9083043,0.85882413,0.8484918
4.89666,8.014092,-1.6839665000000001,1.0775663,1.447576,1.0332174
4.95753,8.259163000000001,-1.4461839,1.107394,1.8819536000000001,1.0513165
5.362006,8.847380000000001,-1.5175791,1.0498854,2.075179,1.0204417
5.9430118,9.761122,-1.8232037,0.9828298000000001,2.47657,1.0060601
6.179999400000001,10.199997999999999,-1.8473372,1.0722605,3.009419,0.99543107
5.924911499999999,10.307497999999999,-1.7427394,1.2005422,2.8284283,1.4159681999999998
6.084203,11.3240385,-2.0121446,1.3032896999999999,2.16728,1.6959714
6.810249300000001,12.427277,-2.2064102,1.3224534,1.5992975,1.8679037
6.655699,10.464979,-1.6538953999999997,1.2990136,1.5279485000000002,2.0914805
5.5524507000000005,7.9717913000000005,-1.0048655999999998,1.3006194,1.67967,2.3059988
5.3233255999999995,8.184013,-1.0481815,1.2777381,1.6988337,2.4263217
6.261909999999999,10.927874000000001,-1.7833259,1.19576,1.5513883,2.4385567000000004
6.9451575,13.159222,-2.9191352999999998,1.057879,1.316083,2.335809
6.4881144,13.082301,-3.26571,0.87051785,1.0057459999999998,2.1202259999999997
6.163001,11.771284,-2.5874906,0.6437298,0.69647366,1.7885785
4.4475739999999995,10.515611999999999,-1.38178,0.37117916,0.4010243,1.3733647
2.4590366,8.382607,-1.3102316999999999,0.086393796,0.12901473,0.91556484
3.1773355,7.702702,-1.8996267,-0.15419984,-0.087632984,0.48226938
3.1386452,7.0464516,-2.2410207000000004,-0.33573154,-0.2957635,0.05534439
3.0437963,6.413942,-1.618624,-0.48052403,-0.5065644,-0.38008034
3.0640992999999996,6.137354,-1.1531625,-0.56782544,-0.63592815,-0.7766715
2.9639162999999997,6.0385594000000005,-1.3132386999999999,-0.6050882,-0.6534861999999999,-1.1210773
2.9645963,6.23498,-1.7369838,-0.6577797,-0.64231604,-1.4431428999999998
3.1329181,6.592328999999999,-2.0831664,-0.7711737,-0.6268699000000001,-1.6763014999999999
3.362982,7.170978999999999,-2.4010587,-0.815348,-0.69022536,-1.7981952
3.6943202000000004,7.703573700000001,-2.65901,-0.6583207,-0.7562337,-1.774773
3.9899945,8.148005,-2.9952996,-0.5023407,-0.6699970000000001,-1.5985819
4.0462294000000005,8.20832,-3.1284556,-0.4842416,-0.5443682,-1.4064038
3.9014474999999997,8.11486,-2.9358560000000002,-0.6396805999999999,-0.7258824,-1.3143201999999998
4.0630274,8.6882515,-2.897185,-0.7956607,-1.2140336,-1.3744816999999998
4.436043700000001,9.487982,-2.7904994,-0.769568,-1.5163944,-1.3664881000000002
4.6425967,9.9526005,-2.4213232999999996,-0.7594626,-1.5600451000000002,-1.2717341
4.832658,9.98046,-2.0997436,-0.8424879000000001,-1.6297709999999999,-1.228607
5.3370495,11.449648,-2.1097705,-0.9596169,-1.7447532,-1.1519697
5.271678,12.34323,-2.3315215,-1.2225857,-2.1711547,-0.8378802
4.6622577000000005,10.313464,-1.5848657,-1.355667,-2.8030162,-0.49986228
4.1534805,9.303821000000001,-0.20019357,-1.3380916,-2.7513892999999996,-0.6595599
4.279674,11.145516,0.069383964,-1.0639353,-2.0268857,-0.9869313
4.7438910000000005,13.677969000000001,-0.7876253000000001,-0.92661273,-0.9388126,-1.0103537
5.124482599999999,14.223751000000002,-1.9550381000000001,-0.83611745,0.10452777,-1.1067133
5.264524,12.268416,-1.2609781,-0.8334471,0.8322079,-1.1908207
4.5701480000000005,9.560507000000001,0.35689887,-0.82760024,1.0744246000000002,-1.2988913999999998
4.467025,7.777401400000001,0.24649744,-0.77808523,0.8636238000000002,-1.3558241000000002
4.7570777,6.603505,-0.17938316,-0.659909,0.37494907,-1.3100616000000003
4.359783599999999,5.4876924,-0.6327588000000001,-0.49434707,-0.12116075,-1.1285299
3.2576945,4.7979608,-1.432403,-0.34211943,-0.43631485,-0.90017104
4.5414176,4.3002543,-0.853667,-0.22820179,-0.47197193,-0.6441138000000001
6.596667299999999,4.3241963,-0.4488362,-0.08232718,-0.37828267,-0.33004177
5.735032,4.307216599999999,-0.49092627,0.13747959,-0.3724358,0.022863812999999997
5.955931,5.4363127,-0.71158546,0.33871606,-0.46184903,0.2826386
6.3796954,6.588928999999999,-1.5290138,0.53832936,-0.32876766,0.53443724
6.335728,7.692685000000001,-1.9965534,0.8236558,0.09601056,0.91078264
6.127528,8.444886,-2.2174424999999998,1.0536203000000002,0.61130154,1.291404
5.556175700000001,8.465581,-2.2291357999999994,1.1622148,1.0398148,1.4771769
4.9933084999999995,8.305236,-1.9337487000000002,1.1350749,1.2463571000000002,1.4681361000000002
4.742933,8.61745,-1.6980061999999998,1.0610903999999999,1.2484864,1.3936104999999999
5.6049986,9.914772,-1.7436491000000003,1.0802541,1.292137,1.3946751
6.2471237,10.614407,-1.8990041000000002,1.192566,1.7919993000000003,1.3574123
5.9083247000000005,10.254567,-1.8778107,1.3144598,2.2061486,1.5272155
5.7583137,11.366003,-1.9859712,1.4017612,2.2300944,1.8066950000000002
6.5191717,12.759084,-1.981039,1.4746985000000001,1.8798243000000001,1.9738452000000002
6.1999288,10.191274,-1.3187838,1.477875,1.7030922999999998,2.1473657999999998
5.0920744000000004,8.099163,-0.88753057,1.4794981000000003,1.7983873,2.3342383
5.3579550000000005,9.755825999999999,-1.3358593,1.4523408000000002,1.8021048,2.4193928
6.2151365,12.269527,-2.105298,1.3682333999999998,1.6924633000000002,2.3997056
6.694312599999999,13.713834,-3.1176049999999997,1.2154473,1.4960263999999999,2.2602363
6.0941725,12.786378,-3.1931756,1.0110344,1.2351869,2.0057847
5.174224,10.903597,-2.3157291,0.7486066,0.9120566999999999,1.6368744
5.214715,9.886636,-1.6292733999999998,0.45156905,0.5782974,1.1769453
3.8259535000000002,8.213289999999999,-0.48140693,0.15879005,0.27593654,0.7159515000000001
3.3881402,7.0065837,-0.9297643,-0.06316347,0.027872908999999998,0.306602
3.2029438,6.7830606,-2.0537558000000002,-0.22392574,-0.13554227,-0.071331605
2.8908834,6.2028403,-1.7635306,-0.3644771,-0.22816689999999998,-0.44450045
3.0311932999999995,6.1585193,-1.2753816999999998,-0.4634722,-0.3037571,-0.81393427
2.998757,6.361997,-1.3609697,-0.5076639000000001,-0.39212313,-1.1828271000000001
3.0576541,6.615753999999999,-1.6921259999999998,-0.56833154,-0.42352159999999994,-1.5293622
3.199975,6.965633,-2.115038,-0.71047115,-0.40702823,-1.7433744999999998
3.3657690000000002,7.5632734,-2.4673588,-0.7945786,-0.49272390000000005,-1.7934130000000001
3.7369082000000002,8.357880999999999,-2.8348305,-0.67640233,-0.71364766,-1.7188874
4.0126915,8.675389,-3.0575294,-0.55237925,-0.84140575,-1.5788772
3.9079019999999995,8.453371,-3.0896695,-0.567808,-0.8845154000000001,-1.4484662
3.7753017,8.288889,-2.848631,-0.72431165,-1.0782819,-1.3685999
4.0853415,8.986799000000001,-2.6962924,-0.8424879000000001,-1.379578,-1.3542359
4.4081273,9.91639,-2.7327416,-0.8696451999999999,-1.5605687,-1.3036562
4.5954595000000005,10.175961000000001,-2.5739582000000003,-0.88400924,-1.7421004,-1.2892921999999998
4.747185,9.920585,-2.1274207,-0.9037139999999999,-1.919356,-1.28451
5.2969029999999995,11.446094,-2.0244124,-1.0708468,-2.3989724999999997,-1.0247177
5.154649299999999,12.290902,-2.2046384999999997,-1.4653087,-3.361958,-0.31513664
4.0593114,9.909514,-1.5496421999999999,-1.3806776,-3.6494136,-0.33910003
3.7320817,9.349347999999999,-0.26409003,-1.3439558999999999,-3.0787609000000002,-0.45886450000000006
4.254008,11.653959,-0.06779421,-1.076711,-1.7415593999999996,-0.8075464
4.8880982,13.706967,-0.9103329,-0.94204146,-0.31599185,-0.9044296000000001
5.1738415,13.622989000000002,-1.7254821,-0.83397067,0.82796675,-1.1114955
5.161698,11.740111,-0.96271807,-0.7999193,1.4954853000000001,-1.2472472
4.658062999999999,9.490003,-0.35029086,-0.7557100999999999,1.6722348999999999,-1.4026687
4.664843,7.6939583,-0.27988216,-0.7014304,1.4049901000000002,-1.4846643
4.6313057,6.4128404,-0.48488329999999996,-0.6205169,0.88652253,-1.4622892
3.4232392,5.461816000000001,-1.7070563,-0.505011,0.36643186,-1.2834454
3.5292737,4.909349,-1.2602503,-0.3644771,-0.01150172,-0.9800198
6.180402,3.9910672,-0.6946728,-0.19146262,-0.16268215,-0.6345319
6.5884504,4.2889733,-0.27694209999999997,0.02412045,-0.21059142,-0.3071605
6.3436866,4.5285273,-0.28472805,0.26738444,-0.19620991,-0.01436406
6.2639309999999995,5.3084526,-0.9590405999999999,0.47605600000000003,-0.06899287,0.19268435
6.554328,6.342547,-1.4681245,0.7177318,0.37601373,0.4886573
6.3778752999999995,7.439598599999999,-1.9335381,1.0238276,0.97380644,0.9219702
6.141185299999999,8.468607,-2.2559798,1.217594,1.4561107,1.2871454
5.7008333,8.823839999999999,-2.430555,1.2532511,1.6684998,1.428744
5.367714,8.905118,-2.2576172000000003,1.1467861000000001,1.6280431999999998,1.3914812
5.060117,8.880429,-1.9600370999999999,1.0584201000000002,1.5071965,1.3467659
5.1103277,9.047996000000001,-1.8651118000000002,1.0009289000000001,1.8281975,1.3355783
5.5159535,9.635848,-1.9051523999999997,1.0291508,2.7432735,1.2424301000000002
5.707949,10.095899000000001,-1.9528546000000002,1.1883073999999998,2.8066115000000003,1.6182518
6.192191,11.652321,-2.3081062,1.3240591,2.360523,1.9669337
7.024942,12.419883,-2.1330327999999996,1.376227,1.8542726999999999,2.1223552000000003
6.105492,9.577554,-1.3495443999999999,1.3064836000000002,1.7728356,2.34382
5.106823,8.518512,-1.1623945,1.256445,1.9139106,2.5625970000000002
5.539809,10.870576,-1.8579675,1.2037536,1.8798418000000001,2.685032
6.340621499999999,13.416455,-2.8782232000000003,1.0957003,1.6674352,2.67545
6.612928999999999,14.027379000000002,-3.776815,0.9130865,1.3150358,2.5258580000000004
5.7576528,12.3157835,-3.2010092999999995,0.6948505,0.8976926,2.2735531000000004
5.872105599999999,10.992641,-2.1346703,0.47446775,0.46863836,1.9658691000000001
5.245648,10.29908,-0.20972249,0.26101398,0.060353484000000006,1.5868533999999999
2.3142543,7.745913000000001,-0.078759655,0.05073672,-0.2414663,1.1471525
3.1642537,7.41219,-1.6220142,-0.14460053,-0.3952996,0.6957406
3.4362543,7.3670539999999995,-2.578651,-0.30803317,-0.45013785,0.25816910000000004
3.205386,7.1474009999999994,-2.1967470000000002,-0.39906952,-0.4799481,-0.12616985
3.2019189999999997,7.2377963,-1.590066,-0.43737950000000003,-0.528381,-0.47003463
3.0293452999999997,7.2576966,-1.6250021000000001,-0.4954117,-0.61463517,-0.8836601999999999
3.0740592,7.471595,-2.073436,-0.6072,-0.66785026,-1.3340075
3.0677385,7.5281553,-2.4525627999999995,-0.79990184,-0.61889374,-1.7215405
2.9387197,7.471709700000001,-2.6904314,-0.9223367,-0.43895029999999996,-1.8423696
3.0017638,7.612805000000001,-2.8242867,-0.8477937,-0.40168753,-1.7433570999999999
3.3342226000000004,8.040965,-2.8789700000000003,-0.6694909000000001,-0.64763933,-1.6278511
3.7252917,8.160214999999999,-2.8975299999999997,-0.5736723000000001,-0.94626516,-1.6225278
3.9615992999999996,8.287194,-2.9129772000000003,-0.6130469,-1.1102214,-1.6613789
4.123476,8.669702000000001,-2.8054202,-0.76635665,-1.1767533000000001,-1.6587086
4.1603947,9.092115,-2.3842132,-0.8701688,-1.1996521,-1.6145343
4.286683999999999,9.389456,-2.0644915,-0.8648456,-1.2725719,-1.5661014
4.8266535,9.747715,-2.0496092,-0.8249299000000001,-1.36202,-1.5352265
5.842101,10.986638000000001,-2.0832236,-0.79670787,-1.3668022,-1.4761296999999998
6.203147,11.628035,-1.947185,-0.8350353000000001,-1.3636082,-1.2919451000000002
5.094804,10.410717,-1.4437995000000001,-1.1187735,-1.8528066000000003,-0.7873005999999999
4.0040727,9.450498,-0.47238556,-1.2294798,-2.504914,-0.5781054
4.1848730000000005,10.694794,-0.1477031,-1.2119216999999998,-2.5533468999999998,-0.81765187
5.320481299999999,12.513764,-0.36981797,-0.96226984,-1.9071038,-1.1519523
5.847923799999999,12.760492,-0.97955406,-0.85419905,-0.7274706999999999,-1.2014498
5.5731077,11.369355,-1.4501966,-0.78126174,0.39678314,-1.2727814
5.2494025,9.473656,-1.0437092,-0.74508107,1.0866593999999998,-1.29568
4.8763185,7.7814616999999995,-0.48568773,-0.6471157,1.2575446000000001,-1.3100441999999999
4.815055999999999,6.5649776,-0.3911072,-0.5145754,1.0110867000000001,-1.2695874
4.7460833,5.801122,-0.46464753,-0.40917498,0.5282588,-1.1663163
4.206468599999999,5.3532915,-1.1078163,-0.33943164,0.024155356,-0.9512568000000001
3.0905888,5.284741,-1.8494346000000002,-0.2728997,-0.38041195,-0.70905745
5.179730999999999,5.220911,-1.5833719,-0.17175785,-0.532116,-0.43437755
6.6503453,5.57125,-0.74574596,-0.026424285,-0.53424525,-0.15063937
6.34112,5.6348785999999995,-0.72154534,0.13271484,-0.528381,0.09154252
6.775121700000001,6.887878999999999,-0.7907474,0.29241246,-0.48101273,0.25923374
6.8021474,7.419525999999999,-1.6282103,0.56070447,-0.12807226,0.5120796
6.2282763,7.6022897,-1.8407197,0.87584114,0.4585329000000001,0.8676729999999999
5.77107,8.020154,-1.6776267,1.1079350000000001,1.1154225,1.1583226999999998
5.420578,8.722767,-1.6711432000000002,1.1941716999999998,1.6684998,1.2653288
5.303425,9.187471,-1.8463029999999998,1.1228402,1.8926176,1.2376479
5.1486735,9.290517999999999,-2.0142705000000003,1.0515085,1.8984644,1.2403008
5.5375013,9.662739,-1.9725252,1.0041403,2.08319,1.270111
5.905615,10.176382,-1.8739321,1.0765365,2.8066115000000003,1.1657752000000001
6.054668,10.909601,-2.11725,1.2442103999999998,2.6911056,1.5053988999999999
6.617573700000001,12.604447,-2.5238621,1.3591926,2.159304,1.7438806
6.9819326,11.861067,-1.9635996999999998,1.4039078999999999,1.7531483,1.8705741000000002
6.0061517,8.687389,-1.0710126,1.3309879999999998,1.7967991,2.0712695
5.2901225,7.578242299999999,-0.8916677,1.259639,1.9756603,2.2692945
5.924691,9.682966,-1.5274623999999999,1.1803488000000002,1.9389386000000002,2.3773654
6.797961999999999,12.462385000000001,-2.5806047999999997,1.0573553999999998,1.7031096999999997,2.377889
6.824863400000001,13.468955,-3.5743324999999997,0.8981988000000001,1.344846,2.2714237999999995
5.721778400000001,12.357356,-3.4418373,0.73263687,0.9700889000000001,2.0856334999999997
5.444395500000001,11.142816,-2.6462247000000003,0.5532519,0.62514204,1.8317231
5.294758,10.312947,-1.2769235,0.36267942,0.36323792,1.502746
2.2963364,7.709751,-1.0392368,0.16358972,0.16468927,1.1301181
3.3829305,7.3964360000000005,-1.9973581000000002,-0.0030019663,0.013508848,0.7505614
3.4147542,7.123765,-2.6874435,-0.13023646,-0.10732029400000001,0.36569884
3.259648,6.799073,-2.3656243999999997,-0.23457225,-0.24198989999999998,-0.043650682999999996
3.2772312000000006,6.805461,-1.9162903000000002,-0.28780478,-0.3548429,-0.42905429999999994
3.0561792999999997,6.825735000000001,-2.0848324000000003,-0.30270990000000003,-0.41872194,-0.7702661999999999
3.0593395,7.1232576000000005,-2.4432158,-0.35433674,-0.4676959,-1.0854028
3.0990357000000004,7.3317156,-2.7143352000000003,-0.4672072,-0.419263,-1.3324018
3.210366,7.5233479999999995,-2.874517,-0.5699373000000001,-0.29843384,-1.4261085
3.4369053999999997,7.865719,-2.9186468,-0.5348038,-0.27818802,-1.3781818000000001
3.7122002,8.117388,-3.0151044999999996,-0.42992696,-0.40329322,-1.2866218
3.8726019999999997,8.217963000000001,-3.108191,-0.40969858,-0.68382,-1.3004622
3.867373,8.444866000000001,-2.9331174,-0.51829296,-1.1032925,-1.4958345
4.1282263,9.426288000000001,-2.948584,-0.7296349,-1.4381338,-1.7060943
4.4255958,10.227091,-2.859395,-0.91753703,-1.5089244,-1.7513332
4.486753,9.99945,-2.394556,-1.0016445,-1.5610923,-1.7295165000000001
4.5319652999999995,9.583195,-1.9791046,-0.99260366,-1.6542580000000002,-1.7263226999999999
5.016858,10.18999,-1.8097771,-0.95479983,-1.6483936000000001,-1.7252580000000002
5.2633653,10.712808,-1.6709516,-0.9728989,-1.6840682,-1.5964352
4.710046,9.519605,-1.3182473999999997,-1.1528249,-2.0492435,-1.1333121000000002
3.8577101000000003,8.265416,-0.5187948,-1.2662189,-2.2717555,-0.8852484
3.8612633,9.425666,-0.31636024,-1.0394483,-1.6792685,-1.2631994
4.7542524,11.697667,-0.85525674,-0.94095933,-0.8568344999999999,-1.3206906
5.9211,12.973728,-1.5141314,-0.769027,0.03160791,-1.4213089
6.186138,12.270235000000001,-1.6293788,-0.71420616,0.77366954,-1.4255674999999999
5.5891776,10.4460745,-1.3127791000000002,-0.65723866,1.2037885,-1.4197031
5.210444,8.570791999999999,-0.7979874,-0.61411154,1.1851483999999999,-1.383505
5.243302,7.224963000000001,-0.40335596,-0.54864424,0.8620356,-1.3025916000000002
5.3012986,6.4818034,-0.44009259999999994,-0.47570693,0.43511057,-1.135965
4.7036104000000005,5.7523856,-1.0324372,-0.40917498,0.06620034,-0.9150587
3.9993415,5.37188,-1.0560919,-0.33039084,-0.10784389,-0.64144343
5.7687335,5.148769000000001,-0.98715806,-0.19624482,-0.16268215,-0.32897709999999997
7.0820490000000005,4.987744999999999,-0.3765313,0.034225907,-0.24198989999999998,0.010629055
5.6748233,5.178189,-0.8645461999999999,0.32700488,-0.32344443,0.32204816
6.60158,6.2884665,-1.0638587,0.5782799,-0.29202849999999997,0.5269847
6.4123906999999996,6.9979258,-1.3695598999999998,0.82367325,0.11623893,0.7095811
6.244461,7.655431299999999,-1.6228856000000003,1.0728015,0.8620356,0.99064887
5.783519999999999,7.9746547,-1.8648244999999999,1.2154646999999998,1.620067,1.2812985000000001
5.58822,8.586575,-1.8906723,1.1830016,2.031022,1.4367375
5.4214497,9.221258,-1.8593754,1.0222393,2.0081234,1.47133
5.671739,9.80215,-2.0495994,0.9423731,1.6440129,1.5176511000000001
5.929212000000001,10.303849000000001,-2.176923,1.0525732,1.3224883,1.6640319
5.851639700000001,10.421394,-2.129585,1.2745616000000002,1.2894841000000001,1.8455635
5.529016,10.329074,-2.0274866,1.4832331,1.408725,2.0781810000000003
5.801122,11.281517,-2.1660630000000003,1.6583595000000002,1.6158084,2.2320318
6.6506229999999995,11.46156,-2.0419285,1.7366025,1.934139,2.4188693
6.448064,8.932834,-1.3809276000000001,1.7754710999999999,2.2125362999999996,2.5961423
5.8285694,7.909695,-1.2051836999999999,1.7344907999999999,2.2918615,2.7111247000000005
6.0682483,10.365878,-1.9577291,1.626961,2.199237,2.725506
6.578778,13.506985,-3.170919,1.4667398,1.9948240000000002,2.6323404
6.438765,14.595915,-4.2114487,1.2564626,1.7233381,2.43538
5.1308703,12.793387,-3.5827887,0.99242914,1.390626,2.1234374
4.1957617,10.753692,-2.2696072999999997,0.6645166,1.0052398,1.7098292000000002
4.010058,9.431258999999999,-1.3587286,0.3339513,0.5671273,1.2451003999999999
3.9301779999999997,8.073267,-1.2827654,0.05979498,0.17160077,0.8197810999999999
4.0376296,7.411510000000001,-1.5312836,-0.13662437,-0.15468854,0.42264894
3.7162607000000003,6.7843347000000005,-1.4298459,-0.3218736,-0.40222856,-0.03139847
3.4245224000000003,6.4724083,-1.414935,-0.44376743,-0.5486093000000001,-0.43277183
3.243109,6.5557075,-1.6553319,-0.47357765,-0.6465571999999999,-0.84053314
3.320212,6.77561,-2.0031903000000004,-0.5204223,-0.6721088000000001,-1.2291306
3.343608,7.054908,-2.28087,-0.6385985,-0.595454,-1.5149807
3.489894,7.6802254,-2.6311892999999995,-0.7014129,-0.45598469999999997,-1.5964352
3.7408445,8.406847,-2.9885478,-0.6178291,-0.44586182,-1.5724718999999998
3.8310387,8.651821,-3.4263324999999996,-0.55023247,-0.58800143,-1.5991056000000001
3.7088387000000003,8.352087,-3.4083184999999996,-0.6077411,-0.73492324,-1.6651139
3.4278936,8.105503,-3.1879466,-0.8190656,-0.9648878000000001,-1.7625207999999999
3.7275612000000002,8.831511,-2.9548376,-1.0378425999999998,-1.3252808999999999,-1.8423696
4.185936,9.72724,-2.9569254000000003,-1.1161032,-1.6627752,-1.8471692
4.2963185,9.3701105,-2.5702138,-1.0980041,-1.8671881000000001,-1.7933956000000002
4.5151486,8.878753,-1.8050462,-1.0825579,-1.9757825,-1.7486802
5.3038273,10.38419,-1.707085,-1.0852283,-1.9273322,-1.7108765
5.4135294,11.152939,-1.7075349999999998,-1.0633941999999998,-1.6563872,-1.6278511
4.534685,9.84627,-1.0916123,-1.061806,-1.4338752000000001,-1.4819938999999998
4.4527364,10.08795,-0.3940473,-1.1661242,-1.2747012,-1.2445594
5.155099,12.190461,-0.44197923,-1.0469009,-1.0234436,-1.4920993999999999
5.837907,14.014354999999998,-0.9984011999999999,-1.0649823999999999,-0.69605476,-1.5964352
6.0263014,13.61728,-1.8287488,-1.0410365,-0.3766595,-1.7513332
5.6795919999999995,11.66072,-1.579024,-1.0596591999999998,-0.08655088,-1.8482164
5.076425599999999,9.446792,-0.7447117,-1.0314546999999998,0.17959438,-1.8253351000000002
4.794322,7.667076600000001,-0.2338752,-0.9590584000000001,0.24719098,-1.6528616999999999
4.9077015,6.373346,-0.34427664,-0.7679449,0.015097098,-1.4005393999999998
5.058967,5.5501814000000005,-0.44929589999999997,-0.50658184,-0.31173325,-1.0981786
4.966714,4.931001999999999,-0.4214753,-0.24574235,-0.45598469999999997,-0.74897313
4.4196295999999995,4.628959,-1.0002687,-0.023230333,-0.38997635,-0.33588862
5.016705,5.1200194,-0.7107236,0.21842796,-0.31492722,0.116029486
5.6706862000000005,5.1522746,-1.4457243999999998,0.44252822,-0.37720054,0.44661229999999996
5.8172016,5.899858999999999,-1.1498680000000001,0.60222584,-0.42830379999999996,0.6169564000000001
6.112483,6.634898,-1.8188272,0.75981164,-0.16746435,0.8096582
6.7299,7.759531,-1.8353664,0.9924117,0.38079593,1.1625812
6.698124000000001,8.7039,-1.8854721999999997,1.1494738000000002,0.9264556999999999,1.4777354
6.2174926,9.12572,-2.0915363,1.1606439,1.2729908,1.6044288
5.814204,9.099086999999999,-1.7267749,0.9982934000000001,1.2756611,1.5469377
6.0157576,9.541708,-1.4188231000000002,0.90617496,1.0994527,1.492623
6.4520864,10.065818,-1.5312836,0.9817826,1.140974,1.5368148000000001
6.3374424000000005,9.784441000000001,-1.812516,1.1361569999999999,1.6541358,1.542138
5.6839595,9.458936,-1.9121721999999999,1.3693155000000001,1.9053933999999997,1.8413049
6.2939444,11.272304,-2.2471595,1.5998037,1.9011346999999998,2.0611641
7.078639,11.794805,-2.2437596,1.6743293000000001,1.8510962,2.2155209
6.2216682,8.723859,-1.5067765,1.7046806,2.0986187000000003,2.4588025
5.209668,7.7174797,-1.1826686000000002,1.6748703,2.2982495,2.6930256
5.665035700000001,10.145219,-1.6980157,1.5460476,2.195502,2.8250422000000004
6.6100554,13.404551000000001,-2.8876562000000003,1.3528222,1.8835768,2.8324947
6.9404845,14.805303,-4.0412593,1.1361569999999999,1.4433348999999998,2.7063425
5.708304,12.894855,-3.3519685,0.92642075,0.93762577,2.4571967
5.2454467000000005,11.180758,-1.9724582,0.69593257,0.45640358,2.0829806
4.8484783,10.4027195,-1.0408361,0.4324228,0.061941735,1.6017584999999999
3.480633,8.360714999999999,-0.9880296000000001,0.18275343,-0.20952678,1.0694331
4.003412,7.927987,-1.6309015,-0.037611846000000004,-0.34580207,0.5451012
3.6480546,7.319132000000001,-1.8494443,-0.22071433,-0.3915646,0.009581857
3.3337822,6.734937700000001,-1.3370851000000001,-0.4150393,-0.40594614,-0.5546831
3.2214557999999998,6.7006235,-1.2903886,-0.59281856,-0.40755183,-1.0928553
3.0330226000000002,6.817154400000001,-1.7564055,-0.72003555,-0.43149775,-1.573013
2.9932119999999998,6.885456,-2.1091290000000003,-0.84514076,-0.44907323,-1.9967438999999998
2.9703999,7.129875,-2.322184,-0.98728037,-0.40116394,-2.3209388
3.095042,7.578309,-2.4971333,-1.0873401000000003,-0.26860616,-2.4454856
3.4784207,8.119657499999999,-2.8013213,-1.0644588,-0.2441192,-2.3826709999999998
3.8684553999999998,8.362793,-3.0981352,-0.9398947,-0.3787888,-2.2288377
3.989152,8.120376,-2.9463812999999996,-0.87975067,-0.57841957,-2.026554
4.0129886,7.736719,-2.7668736000000003,-0.94787085,-0.90048516,-1.8396991000000003
4.338686,8.176668,-2.7143831,-1.0932044,-1.3838366000000002,-1.6986417
4.811923999999999,9.018805,-2.7670937,-1.1442902,-1.8575887999999998,-1.5703425
4.985062999999999,9.282559,-2.550706,-1.0979866000000003,-2.1524970000000003,-1.4037334
5.057684,9.171411500000001,-2.1230056,-1.0554006,-2.2371457,-1.2690463
5.535318,9.996961,-1.9406441000000003,-1.0458361999999999,-2.0529609,-1.097114
5.886116,11.099606,-1.611815,-1.1277968999999999,-1.8799465,-0.8384038
5.3613358,10.452366,-1.2953397,-1.2406673000000001,-1.8469596999999998,-0.561071
4.615044,9.732650999999999,-0.62224346,-1.1379198,-1.6398765,-0.77291906
4.681784599999999,11.368484,-0.26093927,-1.1975402,-1.3550911,-0.8687551
5.1157866,13.821094500000001,-0.5956104,-1.2065985000000001,-1.0426073,-1.1178833000000001
5.420674,14.458728,-1.496491,-1.2912295,-0.68275535,-1.3132381000000002
5.286819,12.517356,-1.7462445,-1.2811066,-0.26382396,-1.4356729
4.9415846,9.857503,-1.054617,-1.2129864,-0.06154031,-1.4457784
4.576296299999999,7.521988,-0.4360799,-1.0612648999999998,-0.058869954,-1.3787053999999999
4.740318299999999,5.972365,-0.45200613,-0.868022,-0.19566886,-1.2339128000000001
4.656531,4.978905,-0.6001880999999999,-0.6417925,-0.32449162,-1.0098126
3.9038129999999995,4.461719,-1.3278434,-0.41023964,-0.37561232,-0.76974255
4.296146,4.4141994,-1.0399933000000001,-0.18292795,-0.32876766,-0.5142264
5.2968554,4.3866467,-1.3317603999999998,0.040631264,-0.2819056,-0.22835888
5.081664599999999,5.636889,-1.5361388999999999,0.26794294,-0.29255208,0.09368927
6.0220013,6.7642136,-2.1302743,0.47661450000000005,-0.39423496,0.32417744
6.5190573,7.301616,-2.2110357000000005,0.70125586,-0.32716197,0.5174202999999999
6.505209,7.725505,-2.0646446,0.9860412000000001,0.11410963,0.8213693999999999
6.203367,8.226229,-2.1135437,1.2090943,0.6821096,1.1599283
5.9378114,8.64598,-2.0798047,1.3299233999999998,1.1143578,1.3270786
5.75749,8.88877,-1.9732627,1.3384406999999998,1.3225058,1.3212317
5.786297,8.971026,-1.9650936999999997,1.3246002000000001,1.3358052,1.2477708
6.0338764000000005,9.393305999999999,-2.0099611,1.4321298999999998,1.3821088,1.2940744
6.1644177,9.663285,-2.0867383000000004,1.5865216999999998,1.7158855,1.4511191
5.910901,9.710087,-2.2240697999999997,1.6647473999999998,2.3504174,1.5927002000000001
5.7361627,10.511972,-2.5631464,1.8170098999999997,2.614451,1.9009428
